time,seconds_elapsed,z,y,x
1670388013754274800,0.02627490234375,0.25601532698571683,0.015128376353159546,-0.1265392714407295
1670388013764205800,0.036205810546875,0.26613106280863286,-0.008737287076562643,-0.12164298729915171
1670388013774137900,0.046137939453125,0.2626180862516165,-0.01624832029379904,-0.08584584386143833
1670388013784069000,0.056069091796875,0.23549217891693114,-0.057244712875038385,-0.047195977873727674
1670388013794001000,0.0660009765625,0.16618015775978565,-0.09819880068451166,-0.010295330173522233
1670388013803932000,0.075931884765625,0.12413023753762245,-0.14283961418271063,0.01515223215278238
1670388013813864000,0.085864013671875,0.09091478115618229,-0.17654614201672375,0.037791568657942115
1670388013823795000,0.095794921875,0.06909048736095429,-0.1670161701925099,0.024141886555217203
1670388013833727000,0.10572705078125,0.04165302985906601,-0.12785736830197275,-0.023434578536078332
1670388013843659000,0.115658935546875,0.038186230531334873,-0.10685133208706975,-0.020508973412960766
1670388013853590000,0.125590087890625,0.03488075924515724,-0.09769231246709822,-0.00576714869197458
1670388013863522000,0.13552197265625,0.027290742507576942,-0.07289302144907414,0.016555303883738815
1670388013873452800,0.145452880859375,0.02316343344449997,-0.04508417335152626,0.061790904937312006
1670388013883384800,0.155384765625,-0.021000702452659607,-0.02169621043615043,0.07738529136702418
1670388013893316000,0.165316162109375,-0.07195347557663917,-0.011655147284641862,0.08775777842998504
1670388013903248000,0.175247802734375,-0.07634031235873699,-0.00286824891269207,0.10208272944577038
1670388013913179000,0.185178955078125,-0.06040332303643226,-0.002405307576060295,0.0862021464858204
1670388013923111000,0.19511083984375,-0.0640875645071268,-0.0029245091445744037,0.01939454589765519
1670388013933042200,0.205042236328125,-0.03556348081231117,0.001973492030054331,-0.02330521653536707
1670388013942974000,0.214973876953125,-0.021914310166239737,0.004589154421165585,-0.05349029224496334
1670388013952905000,0.224905029296875,-0.020779753178358076,-0.007028948788717388,-0.0461922807238996
1670388013962837000,0.2348369140625,0.0051554830670356745,-0.019587547719106077,-0.030814605784788725
1670388013972768000,0.24476806640625,-0.012935469418764113,-0.02727116102427244,-0.03876406695190817
1670388013982699800,0.25469970703125,-0.032467268362641334,-0.029864538518339395,-0.04788688274733722
1670388013992631000,0.264631103515625,-0.03881166895329952,-0.04148841388188302,-0.0018683876877650617
1670388014002563000,0.27456298828125,-0.027925533279776572,-0.04715813008137047,0.03957965765111148
1670388014012493800,0.284493896484375,-0.059632338663935656,-0.029105317648872732,0.02514846978187561
1670388014022425900,0.29442578125,-0.09787117616534233,0.0014664192907512187,-0.022916911337524652
1670388014032356900,0.30435693359375,-0.13429448867738247,0.02238580013550818,-0.046499410444311794
1670388014042289000,0.314288818359375,-0.1505225699007511,0.027963088811188936,-0.01988346192575991
1670388014052221200,0.32422119140625,-0.15466156940162182,0.019566943322494625,0.04587625531097874
1670388014062152000,0.33415185546875,-0.17112755103409288,-0.02645180746540427,0.10481633739443495
1670388014072084000,0.344083984375,-0.18937690895199774,-0.03780775260776281,0.13081714968932792
1670388014082015000,0.354014892578125,-0.12608254064917562,0.003575958790630102,0.04196308218892664
1670388014091946800,0.36394677734375,-0.04403846369087696,0.055630921002849935,-0.10605322224562987
1670388014101878000,0.3738779296875,-0.0493868389815092,0.030663653006777165,-0.0738722417447716
1670388014111810000,0.38381005859375,-0.036088381469249725,0.009063888682425022,-0.03343655178621411
1670388014121741000,0.393740966796875,0.05116378552615642,-0.0036308307830244303,0.006925543213170022
1670388014131672800,0.4036728515625,0.06466098048090935,-0.011149608915299177,0.027306451533362266
1670388014141603800,0.413603759765625,0.05924012447595596,-0.02790755923166871,0.026932046996708956
1670388014151535900,0.423535888671875,0.04644084865748882,-0.0356973363250494,0.02818074101670645
1670388014161467000,0.433466796875,0.005821253499388695,-0.03683664255328476,0.02695224953452125
1670388014171399000,0.44339892578125,-0.028534020566940307,-0.03999240317046642,0.03319838651563041
1670388014181330000,0.453329833984375,-0.045099955442547794,-0.05563756993934512,0.07790292203295976
1670388014191261700,0.46326171875,-0.06180617557168006,-0.08912146799862385,0.11715181335974484
1670388014201193000,0.47319287109375,-0.22606676344573495,-0.026791122422367333,0.10143027515271678
1670388014211125000,0.483125,-0.4253828826099634,0.02342098840214312,0.01679764300594106
1670388014221055700,0.4930556640625,-0.4601385541707277,0.12707878514491022,-0.002320131776947528
1670388014230987800,0.50298779296875,-0.3213584445118904,0.3487260516479611,0.07853843432436697
1670388014240918800,0.512918701171875,-0.23903438156843185,0.16721768411397933,0.15599321986418216
1670388014250850600,0.5228505859375,-0.05597440067827701,0.1519808058850467,0.1204001110985875
1670388014260781800,0.53278173828125,0.12911971638798714,0.14011815332956612,0.10692542023658752
1670388014270713900,0.5427138671875,0.24686346775889395,0.035072336294502016,0.08866546785943209
1670388014280646000,0.55264599609375,0.35832945403456684,-0.0670025751709938,0.20838747876705602
1670388014290576600,0.56257666015625,0.6143325060606002,-0.23522556386999785,0.13333201858708635
1670388014300508700,0.5725087890625,0.7392068399637937,-0.3407925552349537,-0.0359980911036022
1670388014310440000,0.58243994140625,0.7727823618292808,-0.35407756874375046,-0.15466151460269464
1670388014320372000,0.5923720703125,0.8793892176359891,-0.34685338964387774,-0.4929594948092475
1670388014330302700,0.602302734375,0.9082441407203674,-0.3348948024332523,-0.6768325091153383
1670388014340234800,0.61223486328125,0.9297177213817834,-0.32133374846205115,-0.6400282344616949
1670388014350165800,0.622165771484375,0.8644406548291445,-0.3744925071977079,-0.4811671310110017
1670388014360097800,0.632097900390625,0.7194494155704975,-0.45021636815853416,-0.09454025077749975
1670388014370028800,0.64202880859375,0.33009587771892546,-0.5292617016922683,0.47976299983412024
1670388014379960800,0.6519609375,0.25716975771784784,-0.5789275768108666,0.5214256012391298
1670388014389891800,0.661891845703125,0.06245265678167343,-0.4363986725451424,0.3361751245673746
1670388014399823600,0.67182373046875,-0.2749824777841568,-0.2409717428391799,0.40959509250000115
1670388014409755000,0.6817548828125,-0.5131219563394784,-0.1794479278728366,0.30503473916063084
1670388014419687000,0.69168701171875,-0.609491495770216,-0.1180082109933719,0.25200017306022343
1670388014429618000,0.701617919921875,-0.5732996539264917,0.03740702631976455,0.2161660951456055
1670388014439549700,0.7115498046875,-0.40640988659262656,0.10269874245226382,0.07899508291753009
1670388014449480700,0.721480712890625,-0.36983810552060603,0.16867263216264544,-0.03169725210452452
1670388014459412700,0.731412841796875,-0.10881050333082676,0.2852839454375207,-0.06494038194417953
1670388014469344000,0.741343994140625,0.02888064204752445,0.17840875755082816,-0.16363032714650033
1670388014479275800,0.75127587890625,0.02345920152068138,0.18226948809958993,-0.21870456411466002
1670388014489206800,0.761206787109375,0.1064163016706705,0.1967802440110594,-0.16010500256456434
1670388014499138800,0.771138916015625,-0.014667407777905463,0.05611351688802242,-0.0498634435173124
1670388014509070800,0.78107080078125,-0.13136661853194237,-0.0002884615525603294,-0.04486154357679188
1670388014519001600,0.791001708984375,-0.12488953147232532,-0.03337064694315195,0.03414847204838879
1670388014528934000,0.800933837890625,-0.23004794203639028,-0.0936550928402692,0.11955542216906323
1670388014538865000,0.810864990234375,-0.22777473640739918,-0.06079345486517995,0.15743792051346972
1670388014548797000,0.820796875,-0.20263094280064106,-0.057438737609796224,0.03484619938842952
1670388014558727700,0.830727783203125,-0.18239304141402243,-0.01220993162319064,0.0013369476921856402
1670388014568659700,0.84065966796875,-0.04353285225629806,0.06031495063323527,0.007786927549168467
1670388014578591000,0.850591064453125,0.03377484382987022,0.03480396768189967,-0.05264631570149213
1670388014588522800,0.860522705078125,-0.007388941207528114,0.07835044660475105,-0.06320488165477291
1670388014598453800,0.870453857421875,0.019128478839993475,0.059652431603893635,-0.06539724973305128
1670388014608385800,0.8803857421875,-0.048752048209309576,-0.010897862643934785,-0.02071247836211696
1670388014618316800,0.89031689453125,-0.012841361394524574,-0.015264935279637574,0.04408279602294787
1670388014628248600,0.90024853515625,0.03885959974825382,-0.02607957661952823,0.05594097333271056
1670388014638179800,0.910179931640625,0.0681008918017149,-0.12422332264855503,0.05665092996666207
1670388014648111900,0.92011181640625,0.10451602100729941,-0.10989318400099873,0.0866652704855427
1670388014658042600,0.930042724609375,0.08994856647253036,-0.09092585053946822,0.02685342880254611
1670388014667974700,0.939974609375,0.12985446040332316,-0.07123560963086784,-0.03327938846312463
1670388014677906000,0.949906005859375,0.0685363606095314,-0.21012093322984873,0.02844678067490458
1670388014687838000,0.959837890625,0.023982933133840558,-0.18006452540121973,0.058679385320655995
1670388014697770000,0.96977001953125,-0.006337970849871635,-0.2921134261313826,0.042616888188850136
1670388014707700700,0.97970068359375,-0.08210486723482609,-0.25264979607537386,0.14270349364764986
1670388014717632800,0.9896328125,0.23885376430451868,-0.036717582750879225,-0.10879863022994249
1670388014727563800,0.999563720703125,0.3121165689140558,-0.07165083936825394,-0.1663041129330173
1670388014737495800,1.009495849609375,0.31132454175353047,-0.15588899230472741,-0.0656115774703212
1670388014747426800,1.0194267578125,0.2176560779750347,-0.18298238560929894,-0.02088765226593241
1670388014757358800,1.02935888671875,0.1179231995910406,-0.2063444103658199,0.15947077804794535
1670388014767289900,1.039289794921875,0.17490297791957854,-0.09165420134663581,0.18609960431437939
1670388014777221600,1.0492216796875,0.24299568641483782,-0.012238025206513702,0.012623919251561163
1670388014787152600,1.059152587890625,0.16091127744615077,-0.11364435322806238,0.0286413168663159
1670388014797085000,1.0690849609375,0.09665829324424266,-0.13492960824314504,-0.05204487920962274
1670388014807016000,1.079015869140625,0.11122633230090141,-0.10751717558465898,-0.05886007564980536
1670388014816947700,1.08894775390625,0.10055880781412124,-0.09875128346811979,0.005919891568273305
1670388014826878700,1.098878662109375,0.0954103390097618,-0.08279241110756992,-0.042504714784957466
1670388014836810800,1.108810791015625,-0.09370996483266353,-0.15319496744778005,-0.09810092980060726
1670388014846741800,1.11874169921875,-0.33067104725837704,-0.01743091767448932,-0.021829992883652446
1670388014856673800,1.128673828125,-0.10269172818958759,0.16413951877765356,-0.23756756041888147
1670388014866604800,1.138604736328125,-0.08569207807183266,0.22665691135860977,-0.21586397039387373
1670388014876536800,1.148536865234375,-0.13605448408722876,0.17612619957160203,-0.16382811474092304
1670388014886467600,1.158467529296875,-0.1558680225819349,0.08122954570502042,-0.13267075993306934
1670388014896399600,1.168399658203125,-0.06504442684054375,0.03719455261286348,-0.04398410315513611
1670388014906331000,1.178330810546875,-0.016274258452653883,0.030149712135270235,0.016214308426342902
1670388014916263000,1.188262939453125,-0.01272387249469757,0.029826526329200714,-0.023123430227674543
1670388014926194700,1.198194580078125,-0.04324760557413101,0.02359656416475773,-0.034585356495156885
1670388014936125700,1.208125732421875,-0.053552141967415805,0.01870603391053155,-0.005785232337936759
1670388014946057700,1.2180576171875,-0.020213935989141462,0.030960498795192685,0.021750132580474018
1670388014955989000,1.227989013671875,-0.012575403934717178,0.04052448248686269,0.03754807875826954
1670388014965920800,1.237920654296875,-0.015313304466009139,0.04492757628401741,0.05931012097224593
1670388014975851800,1.247851806640625,0.02939911296367645,-0.022877985832933337,0.08485343529060482
1670388014985783800,1.25778369140625,0.0544587354183197,-0.06962441157456487,0.04953611125908792
1670388014995714800,1.26771484375,0.06297931100428104,-0.09236589327994733,-0.03949227162860334
1670388015005646600,1.277646484375,0.10102058010697364,-0.07315888757733628,-0.1319898649968207
1670388015015577900,1.287577880859375,0.1597854882866144,-0.04097847333205864,-0.19432510594390331
1670388015025510000,1.297510009765625,0.19207564651668071,-0.06218942100191489,-0.15226218010969458
1670388015035440600,1.307440673828125,0.15750117674171923,-0.1168045708246529,-0.04530746071338653
1670388015045372700,1.31737255859375,0.10103227054476738,-0.188594782130979,0.10854966043755411
1670388015055304000,1.327303955078125,0.05383855769336223,-0.19960056212879715,0.12534911180809138
1670388015065236000,1.337236083984375,0.08515665602087974,-0.19267485451884567,0.054864247479289766
1670388015075166700,1.347166748046875,0.1604471670657396,-0.16536332495156675,-0.008657207577675581
1670388015085098800,1.3570986328125,0.19402970319390295,-0.12913264893479645,-0.029445728584378956
1670388015095029800,1.36702978515625,0.21526129179298875,-0.09918715413473546,-0.033421938738971944
1670388015104961800,1.3769619140625,0.1454161866724491,-0.10953728323541581,-0.0462435725197196
1670388015114893600,1.3868935546875,0.029868484041094778,-0.10131504214205779,-0.08457754095867276
1670388015124824800,1.396824951171875,-0.055286418414115905,-0.1002149628125131,-0.012777356247603892
1670388015134756900,1.4067568359375,-0.12357143461108207,-0.1431335647611413,0.0472542108669877
1670388015144687900,1.41668798828125,-0.14891747279167175,-0.193900450791046,0.16479484088122845
1670388015154619600,1.42661962890625,-0.1107686516612768,-0.1806133183903992,0.19828473028987645
1670388015164550700,1.436550537109375,-0.058003276157379144,-0.12828202345483003,0.17317279312610626
1670388015174483000,1.44648291015625,0.029709494087100028,-0.08204429615400731,0.17796704166531563
1670388015184413400,1.456413330078125,0.012812135300040245,0.034949732828140255,0.1276437986165285
1670388015194345500,1.466345458984375,-0.02199380514323711,0.13824583838535473,0.02936170356273651
1670388015204276500,1.4762763671875,-0.06984218251109123,0.21465819306699557,-0.003904313962161541
1670388015214208500,1.48620849609375,-0.1895230394244194,0.3048104654180817,-0.027277590765058993
1670388015224139500,1.496139404296875,-0.2811369087606668,0.3049446314580738,0.1595458343118429
1670388015234071600,1.506071533203125,0.03636778293251991,0.111102121399343,0.13937456842064858
1670388015244002600,1.51600244140625,-0.08174304818511009,-0.205836022452265,0.06329144569337368
1670388015253934600,1.5259345703125,-0.1362269180446863,-0.41340705200359223,0.055472004114091394
1670388015263865300,1.535865234375,-0.4819698622286319,-0.20757745929211377,0.003982932156324386
1670388015273797600,1.545797607421875,-0.8716454716414213,0.0225553845487535,0.04538870925605297
1670388015283728600,1.555728759765625,-0.8885574434757232,0.2329847261406481,0.17554478295445441
1670388015293660700,1.56566064453125,-0.6780933228313922,0.07256152447238565,0.5448083034574985
1670388015303591400,1.57559130859375,-0.35317923166453835,-0.19049332749499007,0.8467384093999862
1670388015313523500,1.5855234375,-0.006694529202580452,-0.2176622154548764,0.9186872088015079
1670388015323455500,1.59545556640625,0.14558452897667884,-0.17156141240671277,0.7125280918747187
1670388015333386500,1.605386474609375,0.419902405372262,-0.15537158083450048,0.466514518943429
1670388015343318500,1.615318603515625,0.43134559040665627,-0.13398381529301404,0.22059914568960665
1670388015353249500,1.62524951171875,0.18754618639349938,-0.17424451401084662,0.14786591791212558
1670388015363181600,1.635181640625,-0.09566869768500327,-0.2689958045899868,0.20824644459486005
1670388015373112300,1.6451123046875,-0.574082328736782,-0.2615355517119169,0.0910275938808918
1670388015383044600,1.655044677734375,-0.8120949660420417,-0.2919453030228615,-0.046910804256796834
1670388015392975600,1.6649755859375,-0.7744844895720482,-0.34874592539221044,-0.24160160170793532
1670388015402907600,1.67490771484375,-0.745866297852993,-0.28399522080123424,-0.372693494951725
1670388015412838400,1.68483837890625,-0.7840648033440113,-0.32338790451288224,-0.3247136001586914
1670388015422770400,1.6947705078125,-0.6112064829945564,-0.4446668442726135,-0.2914993128210306
1670388015432701700,1.70470166015625,-0.3021826193988323,-0.4501780089095235,0.001064998883008957
1670388015442633700,1.7146337890625,0.26282149986922737,-0.39042847360670563,0.48146132818460463
1670388015452564500,1.724564453125,0.8109685923606157,-0.18483020543307066,0.9286188202291726
1670388015462496500,1.73449658203125,0.947820364305377,0.01796645388987381,1.221892156985402
1670388015472427500,1.744427490234375,1.0958487793028353,0.14666998612582682,1.3239765669316053
1670388015482359600,1.754359619140625,1.0493220059275628,0.25435762290656566,1.201997954469919
1670388015492290600,1.76429052734375,0.8039426392465829,0.3087634590938687,0.9092401660203934
1670388015502222600,1.77422265625,0.3245172008037567,0.3133317899227142,0.5177127912610769
1670388015512153600,1.784153564453125,-0.37880700939595696,0.28205110099613667,0.10035071802139281
1670388015522085400,1.79408544921875,-0.9002209932625294,0.4234560062006116,-0.31099077975451944
1670388015532016600,1.8040166015625,-1.1654045460879803,0.576917259901762,-0.38182431139051914
1670388015541948700,1.81394873046875,-1.3524170639961957,0.4228841245967895,-0.15882278073430062
1670388015551880700,1.823880615234375,-1.3734469925433397,-0.09893383696079254,-0.04995440973639488
1670388015561811500,1.8338115234375,-1.1484066495358942,-0.7033259637653827,-0.047644379228353496
1670388015571743500,1.843743408203125,-0.9326116892576217,-0.8806450629159808,-0.14287351645231247
1670388015581674500,1.853674560546875,-0.36178047127127644,-0.7619521210614592,-0.25708909369707106
1670388015591606500,1.8636064453125,0.3025067367866635,-0.47884884413126855,-0.4306622843176126
1670388015601537500,1.87353759765625,0.6916182825759053,-0.17991324382964521,-0.5178086528509855
1670388015611469600,1.883469482421875,0.619459932076931,0.039078503195941444,-0.5525426971018313
1670388015621400600,1.893400634765625,0.17067454656958578,-0.12407441569715738,-0.40879473590254783
1670388015631332600,1.90333251953125,0.09570902969539165,-0.1713482811126858,-0.19340192668437955
1670388015641263400,1.913263427734375,0.2553781981259584,-0.08378719429858028,-0.07609656673073768
1670388015651195600,1.923195556640625,0.34911563548743724,-0.0002817395508289337,-0.06376783103346824
1670388015661126700,1.933126708984375,0.2388335982993245,0.07978307322375476,0.0003314239114522934
1670388015671058400,1.943058349609375,-0.10411503899097442,0.2147147638261318,0.04278524875938892
1670388015680989400,1.952989501953125,-0.5503139151364564,0.2508905313178897,-0.030189386558532712
1670388015690921500,1.96292138671875,-0.9678454997241497,0.15276567265242338,-0.11472820294201373
1670388015700852700,1.972852783203125,-1.3284709557414054,0.09251490982919931,-0.1981371385127306
1670388015710784500,1.982784423828125,-1.411198046527803,0.11697561654262244,-0.26556524561941625
1670388015720715500,1.992715576171875,-0.9000427140861749,0.24617497403807936,-0.1926993313729763
1670388015730647600,2.0026474609375,-0.04546703518927097,0.3306294731389731,-0.023505963271856306
1670388015740578600,2.01257861328125,0.5857584457442164,0.3339846287857741,0.06299158596396445
1670388015750510300,2.02251025390625,1.4015852917909621,0.441090739351511,-0.025434885507822035
1670388015760442400,2.0324423828125,1.885748280149698,0.26709669297039507,0.10467267287373543
1670388015770373600,2.04237353515625,1.8307222662374376,0.035922304187342526,0.19540566772222517
1670388015780305700,2.0523056640625,1.5508707211121915,0.05029394388906657,0.28923136788904663
1670388015790236400,2.062236328125,1.0959551622867583,0.17870996898710725,0.4219838878214359
1670388015800168400,2.07216845703125,0.47710664010643955,-0.05040361480861902,0.5555588300526142
1670388015810099700,2.082099609375,-0.10646130985617637,-0.34545535941421984,0.4823112230122089
1670388015820031700,2.09203173828125,-0.023127777609229086,-0.109830201767385,0.2725415143728256
1670388015829962500,2.10196240234375,0.3163619513988495,0.07891279319524765,0.2807400183975696
1670388015839894500,2.11189453125,0.7489382526442409,0.1333881144221872,0.19160393735170364
1670388015849825500,2.121825439453125,0.8727882119357585,-0.40113516106009484,0.009236614900827408
1670388015859757300,2.13175732421875,0.7890361620157956,-0.4331842040106654,-0.13406769418418407
1670388015869688600,2.1416884765625,0.6240469676062464,0.02835683736912906,0.0014893617749214172
1670388015879620600,2.15162060546875,0.2559112820893526,0.3906616978406906,-0.036219898894429205
1670388015889551600,2.161551513671875,-0.22585662782639263,0.46791408354304725,-0.1281540862262249
1670388015899483400,2.1714833984375,-0.5046984113872051,0.619608985158801,-0.12084990069270134
1670388015909414700,2.18141455078125,-0.7958259682863951,0.42393940580338235,-0.21963526909351347
1670388015919346700,2.1913466796875,-1.1012962310537695,-0.003025558366253972,0.11231821919083594
1670388015929277400,2.20127734375,-1.1231965126946568,-0.4196197159733623,0.26038755072057246
1670388015939209500,2.21120947265625,-0.69671034501791,-0.8803317591831088,0.07728899138569831
1670388015949140500,2.221140380859375,0.47385815970450634,-1.0035787841454147,-0.04579787457883358
1670388015959072500,2.231072509765625,1.2206456640556453,-1.0167953355278818,-0.2808388025969267
1670388015969004500,2.241004638671875,1.2527332854509352,-0.6409191919520497,-0.6657797847032546
1670388015978935600,2.250935546875,0.3676014325097203,0.2915755563950166,-0.9210586141079664
1670388015988867600,2.26086767578125,-0.8207410677038133,0.7557108155190945,-0.8211182304531335
1670388015998798600,2.270798583984375,-1.2545432574823498,0.617395766088739,-0.8209808678090572
1670388016008730600,2.280730712890625,-1.1343740325301885,0.1261369011849165,-0.9793839618265628
1670388016018661400,2.290661376953125,-0.8941675384424627,-0.45022042327914386,-0.6984399452894926
1670388016028593700,2.30059375,-0.45490269934386013,-0.6365978216215967,-0.16328092918694018
1670388016038524700,2.310524658203125,-0.0006819909147918224,-0.35284141454491763,0.013057634493708609
1670388016048456400,2.32045654296875,0.2619277658998966,0.14243454051315785,-0.03363689666390419
1670388016058387500,2.330387451171875,0.20492884447947143,0.5668477013081312,0.07862462390363216
1670388016068319500,2.340319580078125,0.06283990253359079,1.23811234716326,0.3848462895601988
1670388016078250800,2.350250732421875,-0.06014715631827712,1.4922940289810298,0.43947453632652755
1670388016088182500,2.3601826171875,-0.06750453334376215,0.6541755638882517,-0.006699789899587631
1670388016098113500,2.370113525390625,-0.10463643251657485,0.384167075124383,-0.28431144714355466
1670388016108045600,2.380045654296875,0.18146876617595553,0.28013036206662656,-0.07933247991204262
1670388016117976300,2.389976318359375,0.2054969997562468,-0.4923065473258495,0.11620879688858986
1670388016127908400,2.399908447265625,-0.30797464680373665,-2.1813424610689283,0.9044640376597642
1670388016137839600,2.409839599609375,-0.42878363096415995,-1.5085054513305425,1.1969529460400343
1670388016147771600,2.419771728515625,0.11816577617526054,0.03245733149051666,1.435351367792487
1670388016157702400,2.429702392578125,0.7348042941559105,1.1236804968193173,0.8201286348938941
1670388016167634400,2.439634521484375,0.6405884986929595,1.053812303084135,-0.4913748194336891
1670388016177565700,2.449565673828125,0.02254040617533028,0.7243620297923684,-1.497915083733201
1670388016187498000,2.459498046875,-0.33652313428744673,0.715561760482192,-1.6266946083813905
1670388016197429000,2.469428955078125,-0.5772106533577666,0.39161680660843845,-1.0784423019498586
1670388016207361000,2.479361083984375,-1.2733803521603344,-0.18922288743406532,-0.5954214693635702
1670388016217293000,2.48929296875,-1.7671651553452015,-0.6524249208286405,-0.5445359162569046
1670388016227224000,2.49922412109375,-1.7513444858789442,-0.7123045122519135,-0.4527537046164274
1670388016237156000,2.509156005859375,-1.2475439001142978,-0.8641741128474474,-0.3431698788255453
1670388016247087000,2.519087158203125,-0.480873335696198,-0.9227078426197171,-0.3558165944308042
1670388016257019100,2.52901904296875,0.06756134156491607,-0.8111646994546056,-0.3291273249477148
1670388016266950100,2.5389501953125,0.20105331822037695,-0.6217600257128477,-0.01803776099383831
1670388016276882000,2.5488818359375,0.3308826441824436,0.05723433761149645,0.1184416705071926
1670388016286813000,2.55881298828125,0.4245604603111744,0.26394319737553595,0.707980511572957
1670388016296745000,2.568744873046875,0.6064507398348301,0.14652159063108264,1.376283092752099
1670388016306676200,2.57867626953125,0.7168748889073729,0.23870865674540398,1.7461030780941247
1670388016316608000,2.58860791015625,0.5711491978943347,0.30383593956381083,2.07135093125999
1670388016326539000,2.5985390625,0.39398397413119673,0.4953151545573026,2.2574732223302125
1670388016336471000,2.608470947265625,0.39168665697425603,0.6238550252307206,2.1175474497675895
1670388016346402000,2.618402099609375,0.4286657036729157,0.23503435214683413,1.397818048211932
1670388016356334000,2.628333984375,0.4609000400625169,-0.1654839191239327,0.5685030672997236
1670388016366265000,2.63826513671875,0.26922990560680626,-0.42084005154855547,-0.11842764198184012
1670388016376197000,2.648197021484375,0.37965164352655406,-1.0622744264811277,-0.5746124900907278
1670388016386128000,2.6581279296875,0.2122925051152706,-1.712286148688197,-0.6998767000943422
1670388016396060000,2.668059814453125,-0.2549769238486886,-2.148343570047617,-0.775790311473608
1670388016405991200,2.6779912109375,-0.6957458838999271,-1.9550377972140907,-0.5881657991468906
1670388016415923200,2.687923095703125,-0.5095423442870378,-1.6429061768613755,0.03790916715562343
1670388016425855000,2.69785498046875,-0.6970838545054197,-2.4857889337465164,1.7144599855959415
1670388016435786000,2.707785888671875,-1.1752046400904654,-1.8228782747387886,3.192788325327635
1670388016445718000,2.717718017578125,-0.7907312754958867,0.17987046413384378,2.9464152714341876
1670388016455649000,2.72764892578125,0.3445566570088267,1.2101938281461595,2.180660031762719
1670388016465581000,2.7375810546875,0.802133543998003,1.9873437375351786,1.3498124344557523
1670388016475512000,2.747511962890625,0.6144979257553815,1.2159139593586326,0.4727098664522171
1670388016485444000,2.757444091796875,0.14620412217974663,-0.07321960478862748,-0.2714496274828911
1670388016495374800,2.767374755859375,-0.20804186193346977,-1.2225965058624744,-0.776181941139698
1670388016505307000,2.777306884765625,-0.27106676564514637,-1.355704707364738,-1.0419400789827107
1670388016515238100,2.787238037109375,-0.06674889267086982,-0.9933905676081776,-1.3860159667372702
1670388016525170200,2.797170166015625,0.08281739941835403,-0.540445139811933,-1.7487264123350381
1670388016535101000,2.807100830078125,0.15992285093069075,-0.10423077432513236,-1.8511171117514371
1670388016545033000,2.817032958984375,0.18572014001011847,0.21712357853353023,-1.5383979007691144
1670388016554964000,2.8269638671875,0.10254033702015876,0.5613301069304347,-0.6476286264628172
1670388016564896000,2.83689599609375,-0.049203883630037304,0.9567153261616825,0.5276303741633892
1670388016574827000,2.846826904296875,-0.20559388425946235,0.8631351251885294,1.6158546499371527
1670388016584759000,2.856759033203125,-0.4030518083363771,0.6684174397304654,2.389589197924733
1670388016594690000,2.86668994140625,-0.4599772261291742,0.46212651311755176,2.564050861817598
1670388016604622000,2.8766220703125,-0.2042453922599554,0.3857224513402209,2.269489823338389
1670388016614553000,2.886552978515625,0.48924949784278865,0.40003991316929455,2.0528373694479463
1670388016624485000,2.896485107421875,0.9423200133234262,0.6988761447496712,1.4305711477786303
1670388016634416000,2.906416015625,1.0833020169407128,0.4914686351969838,0.5958522619962692
1670388016644348200,2.91634814453125,1.042553242444992,0.4661543073289096,-0.5569564218908548
1670388016654280000,2.926280029296875,0.7429027718722819,0.7243802961014211,-1.8223685716509819
1670388016664211000,2.9362109375,0.45719431741237637,1.1717790495559572,-2.143106253916025
1670388016674143000,2.94614306640625,0.2591740832775831,1.5824376796342432,-1.4693255335867403
1670388016684074000,2.956073974609375,-0.219542914634943,1.5955436833143233,-0.5941752686947583
1670388016694006000,2.966006103515625,-0.759570413556695,1.5139245537698267,0.18852233794927595
1670388016703937000,2.97593701171875,-1.088764373999834,1.375614253579825,0.6326210269451141
1670388016713869000,2.985869140625,-1.1387544395714997,1.3202075697869062,0.6146688984081149
1670388016723800000,2.995800048828125,-1.0960463477015494,0.991233316509053,-0.15501637418866157
1670388016733732000,3.005732177734375,-0.8608131119817495,0.05608545983731746,-1.289483637960255
1670388016743663000,3.0156630859375,-0.5264262590706348,-0.4786993161253631,-1.9461913506746291
1670388016753595100,3.02559521484375,-0.19062661675214768,-0.5326749442018568,-2.1794763749361037
1670388016763526000,3.03552587890625,0.13163140694797038,-0.43749139968529344,-2.251587963683903
1670388016773458000,3.0454580078125,0.28497078783512114,0.04435702812075615,-1.939227356880903
1670388016783389200,3.05538916015625,0.2850502828121185,0.5590137928120792,-1.3065218665227294
1670388016793321200,3.0653212890625,0.2663502585172653,0.8756609908930957,-0.26652766091078517
1670388016803252000,3.075251953125,0.2008943282663822,0.7968819070801139,0.8616334884539246
1670388016813184000,3.08518408203125,0.15905542044639587,0.4020958227857947,1.628118503704667
1670388016823115000,3.095114990234375,0.12572013707756996,0.1373860249519348,2.2828201372936365
1670388016833047000,3.105047119140625,0.05659282483756542,-0.4180297433681786,2.202953258243948
1670388016842978000,3.11497802734375,-0.062332245272397994,-0.7509852483019233,1.3458027604229748
1670388016852910000,3.12491015625,-0.06982055520117282,-0.4589261096410453,0.3483447241801768
1670388016862841000,3.134841064453125,-0.2549871529817581,-0.501489824604243,-0.8522546155381947
1670388016872772900,3.14477294921875,-0.5036871885180473,-0.7119162435866891,-1.94991037119776
1670388016882705000,3.154704833984375,-0.8732792103230953,-0.9180217306300997,-2.4681162066727875
1670388016892636200,3.16463623046875,-1.1243640951693057,-1.2178054721936582,-2.4434032056987283
1670388016902568200,3.174568115234375,-1.1424807666182517,-1.0336036277920007,-1.8843588716179132
1670388016912499000,3.1844990234375,-0.9502198266625403,-0.6509153930485249,-0.8842817389179021
1670388016922431000,3.194430908203125,-0.5482172351181507,-0.21190818197280167,0.472704642287828
1670388016932362000,3.204362060546875,-0.3487117308616638,-0.09973375516682863,1.4836444201879202
1670388016942294000,3.2142939453125,0.06266366918385029,0.1445142693966627,2.12245158842206
1670388016952225000,3.22422509765625,0.30918343807160853,0.03450695749670267,2.1263012495875357
1670388016962157000,3.234156982421875,0.817130037599802,0.17619301773011684,1.540300081128627
1670388016972088000,3.244088134765625,0.9912883346319198,0.24754677384793758,0.9007960897367447
1670388016982020000,3.25402001953125,1.0795797815471886,0.06801145995259285,0.00848228940218687
1670388016991951000,3.263951171875,1.0226491030573843,0.056321314419806,-0.8811747858785093
1670388017001883100,3.273883056640625,0.9274129515707492,0.05864069727808237,-1.457847277238965
1670388017011814100,3.283814208984375,0.8764917426288127,-0.12715396927297115,-1.584808500418812
1670388017021746000,3.293745849609375,0.9416694404602051,-0.07212357144653797,-1.028344830480963
1670388017031677000,3.303677001953125,0.9786141464978456,-0.09304653248786926,-0.4510222046487033
1670388017041609000,3.31360888671875,1.0038117161184548,-0.017568097655475137,-0.09307941184416413
1670388017051540200,3.323540283203125,0.9901064313709735,0.23355273528695106,-0.05898001223504543
1670388017061472000,3.333471923828125,1.0057949988901616,0.16183248394429683,-0.11376315730214118
1670388017071403000,3.343403076171875,1.0716261921942234,0.04571165760010481,0.11263152292370796
1670388017081335000,3.3533349609375,1.0998434018969536,0.09354512965977191,0.2834460624858737
1670388017091265800,3.363265869140625,1.062465565139055,0.01495557706952095,0.18029694591760634
1670388017101198000,3.373197998046875,1.0100058945834636,-0.053740942537784574,0.0028939678758382794
1670388017111130000,3.383130126953125,0.9412965154945849,-0.05826484970301389,-0.2890197709649801
1670388017121061000,3.39306103515625,0.8250386187672615,0.03976619319915771,-0.5391030775532126
1670388017130993200,3.4029931640625,0.663628744149208,0.12194587923586368,-0.528868976047635
1670388017140924000,3.412923828125,0.5386269844740629,-0.051909050935506816,-0.3883537131592631
1670388017150856000,3.42285595703125,0.4157201512515545,-0.5610895761728286,-0.41986733405888077
1670388017160787200,3.432787109375,0.3480190724223852,-0.8140960767313837,-0.5149307593271136
1670388017170719200,3.44271923828125,0.20408581778407095,-0.8932660595580935,-0.3110702747315168
1670388017180650000,3.45264990234375,-0.5741062941342592,-0.8497250239953398,2.245426226183772
1670388017190582000,3.46258203125,-0.9276531900674104,-0.7570522932559252,2.6564535434439778
1670388017200513000,3.472512939453125,-1.2916074982464312,-0.42976679678261276,2.113571531873941
1670388017210444800,3.48244482421875,-2.156982219055295,0.5024731365531683,1.5770929576054213
1670388017220376000,3.4923759765625,-4.592285120406746,1.2002326983630656,1.0205980157464742
1670388017230308000,3.50230810546875,-8.306866199785471,1.6209811991706489,0.8454974694281816
1670388017240239000,3.512239013671875,-5.0683688472062345,1.1903849658265708,1.0296522598177194
1670388017250171000,3.5221708984375,-1.343660341566801,0.5577098706066608,0.36991233980059623
1670388017260102100,3.53210205078125,-0.42681788384914393,0.6969263258561491,-0.6217924666777253
1670388017270034200,3.5420341796875,-0.1576338632106781,0.22037878093719482,-1.6920833186149595
1670388017279965000,3.55196484375,0.2647287947952747,-0.4220405864447355,-2.7357076974228023
1670388017289897000,3.56189697265625,0.9874749138236045,-0.6919064518675208,-3.1518197706013917
1670388017299828000,3.571827880859375,1.3496791634649037,-0.670307198999822,-3.2618864114731547
1670388017309760000,3.581760009765625,0.9222960469484328,-0.708361035323143,-2.2900641170725224
1670388017319691000,3.59169091796875,-0.1353121412873268,-0.34684447568506,-0.24649960288256406
1670388017329623000,3.601623046875,-0.4536386707574129,0.13963029674738645,1.0338690007299185
1670388017339555000,3.61155517578125,0.22176292877197265,0.28427622969970107,1.3791785219326615
1670388017349486000,3.621486083984375,0.9628700493991375,0.3867907016262412,1.2048761402547359
1670388017359417900,3.63141796875,1.5249159033834934,0.38589462956935167,0.6981734033077955
1670388017369349000,3.64134912109375,1.6012445253044365,-0.2500503541667014,0.362363239595294
1670388017379281200,3.65128125,1.0878174485385417,-1.931888684555888,1.1965642389833926
1670388017389212200,3.661212158203125,0.546847700330615,-3.2948756578832863,2.300557746297121
1670388017399144000,3.67114404296875,0.5856932715535164,-2.8450828488990663,2.38668529317677
1670388017409075000,3.681074951171875,0.8020061182260513,-2.0658814138077197,1.5810247440963983
1670388017419007000,3.691007080078125,1.2398141826450824,-1.0615158631987869,-0.7335662037283182
1670388017428938200,3.700938232421875,0.9699263976514338,-0.08406023908630013,-2.948583847644925
1670388017438870000,3.7108701171875,0.9500146594792603,0.5803191042345017,-2.1124784759402275
1670388017448801000,3.720801025390625,0.08369359773099422,0.5812039242450148,-1.8523317482382058
1670388017458733000,3.730733154296875,0.17096563847064972,0.6419103949464857,-0.9419950191527604
1670388017468663800,3.740663818359375,0.5007990658611059,0.9936822440311313,-0.019513678765296937
1670388017478596000,3.75059619140625,0.8436012804180383,1.020212231299281,0.9720096336662769
1670388017488527000,3.760527099609375,1.1691156755656003,0.8391998305886983,1.6371347538530825
1670388017498459100,3.770459228515625,1.527641528955102,0.7069200427345931,1.753219632101059
1670388017508390000,3.780389892578125,2.0285633444130418,0.7522832522232085,1.6792127311259508
1670388017518322000,3.790322021484375,2.057459768551588,0.9009891280908137,1.5713807174384593
1670388017528253200,3.800253173828125,1.8833809664964676,0.9892799174189567,1.2904992447435855
1670388017538185200,3.810185302734375,1.1729963163912296,0.8993373422957956,1.116340363189578
1670388017548116000,3.820115966796875,0.3353963222146034,0.7846031480044126,1.0243903937667607
1670388017558048000,3.830048095703125,-0.11699264074265957,0.6028291883368044,0.8288853573232888
1670388017567980000,3.83997998046875,-0.4122311400920152,0.36112310334108766,0.6794412303090095
1670388017577911000,3.8499111328125,-0.01922843208312988,0.25083091008514163,0.4649503383666277
1670388017587842800,3.8598427734375,0.649011020731926,0.2966441283635795,0.40468554701805115
1670388017597774000,3.869774169921875,0.7878484135359525,0.2552256379127502,0.6104565414100885
1670388017607706000,3.8797060546875,0.922208076404035,-0.0011013853706419467,0.7725462149858474
1670388017617636900,3.889636962890625,0.9103490040451288,-0.26305355505943295,0.6217156020492315
1670388017627569000,3.89956884765625,1.1287763586536048,-0.3681865389212966,0.18482465247511862
1670388017637500200,3.909500244140625,1.4067080416321753,-0.5668842339262365,-0.2801730321645737
1670388017647432200,3.91943212890625,1.3412851368680596,-0.7493199454382061,-0.09792845931053161
1670388017657363000,3.929363037109375,1.1089014453604817,-0.7994137636452913,0.22704057691395282
1670388017667295000,3.939294921875,1.0414845903001726,-0.8187624611072242,0.1798375117123127
1670388017677226000,3.94922607421875,0.842615191990137,-0.7391568633422255,0.19870412474572657
1670388017687156000,3.959156005859375,0.5892132623732089,-0.6204442669391632,0.17724807974100112
1670388017697088000,3.969087890625,0.4940564597330987,-0.6482889900676906,0.06272562850415707
1670388017707020000,3.97902001953125,0.36756942993625996,-0.5921062073357403,-0.07039630926251411
1670388017716951000,3.988950927734375,0.1923908499456942,-0.3226066910073161,0.03971241718530655
1670388017726882800,3.9988828125,0.011360694382712245,-0.16483882615342735,0.3981412399411201
1670388017736814000,4.00881396484375,0.07528875747919082,-0.21609949618279933,0.49368718802928924
1670388017746746000,4.01874609375,0.1566226403415203,-0.3267532892927527,0.3334709071099758
1670388017756677000,4.028677001953125,0.18242694368362425,-0.3275315801888704,0.32872809649705886
1670388017766609000,4.03860888671875,0.30371055961847304,-0.32298984510600565,0.27958091149032116
1670388017776540200,4.0485400390625,0.35083880601823325,-0.35280981383025645,0.05048164848089218
1670388017786472200,4.05847216796875,0.3689010803988203,-0.2774035674512386,-0.23858020806014538
1670388017796403000,4.06840283203125,0.18197803087234496,-0.20498042853623627,-0.29867782614827154
1670388017806335000,4.0783349609375,0.15480134319849312,0.054106707110255954,-0.2879612018227577
1670388017816266000,4.088265869140625,0.11441358403488992,0.3323167686387896,-0.48750645356774325
1670388017826198000,4.098197998046875,0.06589446779862046,0.2710866393893957,-0.8924830924868583
1670388017836129000,4.10812890625,0.0008213993854820728,0.016698767475038765,-1.3300947575509547
1670388017846061000,4.11806103515625,-0.033563100775331256,-0.2770290350504219,-1.4728613064974545
1670388017855992000,4.127991943359375,0.03830854173675179,-0.47565629516765473,-1.2493202621370554
1670388017865924000,4.137924072265625,0.09534867195039987,-0.3548227610878646,-1.0454209068357945
1670388017875854800,4.147854736328125,0.04235474838763475,-0.25121654840186236,-1.0305740508377552
1670388017885787100,4.157787109375,0.16337532947212458,-0.13843831048384309,-1.0627315225988625
1670388017895718100,4.16771826171875,0.2457195584207773,0.023290274694561956,-1.0804027883678675
1670388017905650200,4.177650146484375,0.21984043627679348,0.036522681233286856,-1.0067664742708207
1670388017915581000,4.187580810546875,0.2801221787601709,-0.025980536691844462,-0.6486170529782772
1670388017925513000,4.197512939453125,0.34580431898236275,-0.1168517709672451,-0.3507201480746269
1670388017935444200,4.2074443359375,0.42750645063519477,-0.1337964760273695,-0.1926817957162857
1670388017945376000,4.2173759765625,0.46356297566145654,-0.1666160649590194,-0.19321429515779018
1670388017955308000,4.22730810546875,0.5554091924488544,-0.2296517823256552,-0.20345102701187132
1670388017965239000,4.237239013671875,0.5459364307045936,-0.14666121829748152,-0.07695581390857696
1670388017975171000,4.247171142578125,0.31944296627938745,0.06167202779799699,0.010683306577801704
1670388017985101800,4.257101806640625,0.19802140317857264,0.10334814627170562,-0.006586392652988433
1670388017995033900,4.267033935546875,0.38820612138211724,-0.04128156619817018,-0.1916746645003557
1670388018004965000,4.276965087890625,0.5592483322203159,-0.17291209636330604,-0.3054980275571346
1670388018014897200,4.286897216796875,0.4576829777121544,-0.2509136199325323,-0.2900117046117782
1670388018024828000,4.296827880859375,0.40897243055701255,-0.3201452693298459,-0.28985972892045975
1670388018034760000,4.306760009765625,0.5635813929885626,-0.13420790637247262,-0.27810324015319343
1670388018044691200,4.316691162109375,0.36566637279391284,0.06590308949649333,-0.37129999476671216
1670388018054623200,4.326623291015625,0.04163198707103729,0.1461808874346316,-0.3420966966360807
1670388018064554000,4.336553955078125,-0.25844284639358517,0.05255538601502776,-0.8042582810670137
1670388018074486000,4.346486083984375,-0.1566086118161678,-0.1558348509646952,-1.1063473769634962
1670388018084417000,4.3564169921875,-0.05975099660754203,-0.1925502782911062,-0.6872896057218313
1670388018094349000,4.36634912109375,0.24299159476161003,-0.15667568570300935,-0.01373684892952442
1670388018104280000,4.376280029296875,0.6127852766185998,0.08038301187828183,0.36055648243427274
1670388018114212000,4.386212158203125,0.6649661302328109,0.28082784281149503,0.7235667877614498
1670388018124144000,4.39614404296875,0.5770435166299342,0.37388416604101654,1.0193272651582956
1670388018134075000,4.406074951171875,0.42854689959883685,0.36405543046593664,0.813099759170413
1670388018144007000,4.4160068359375,-0.07212006431519985,0.26192129962649197,0.6080892277568578
1670388018153938200,4.425938232421875,-0.7787801409393549,0.03554550676420331,0.19668226352930068
1670388018163870200,4.4358701171875,-1.3028309030503034,-0.06853946588207036,-0.3680605744540691
1670388018173801000,4.445801025390625,-1.6928291685461998,0.14313538225889205,-0.46471419152319426
1670388018183733000,4.45573291015625,-1.743340627643466,0.42825010860934853,-0.2680693373948336
1670388018193663500,4.46566357421875,-1.3446633811295032,0.8898961447335779,0.17040625102221965
1670388018203595500,4.475595458984375,-1.2199556359648704,1.1412287207305432,0.7082505606859922
1670388018213527600,4.485527587890625,-0.8946165973842144,1.023889312376827,0.9446241986125707
1670388018223458600,4.49545849609375,0.11890052019059658,0.6762124775208532,0.6015320611983538
1670388018233390600,4.505390625,0.8263514549314975,0.2314581010952592,-0.03547463348507881
1670388018243321300,4.5153212890625,0.6170224757969379,0.19461320217028258,-0.13461305310726165
1670388018253253400,4.52525341796875,0.32185645716190336,0.27766221838742494,-0.12109539988636969
1670388018263184600,4.5351845703125,0.3274760506093502,0.18960490902159363,-0.2675572962194681
1670388018273116700,4.54511669921875,0.5008855751007795,-0.12266549874730408,-0.43634851326048374
1670388018283047400,4.55504736328125,0.909571005409956,-0.48776145124211906,-0.739635294508934
1670388018292979500,4.5649794921875,0.8441086454182862,-0.8573622408755123,-1.3062620465427637
1670388018302910500,4.574910400390625,0.3375368413746357,-1.184857142315805,-1.841913230076432
1670388018312842500,4.584842529296875,-0.20116262381374836,-1.1573472040995956,-2.1175211462825536
1670388018322773500,4.5947734375,-0.408115521466732,-0.9515959373213351,-2.2258576023608443
1670388018332705500,4.60470556640625,-0.39279870986938475,-0.9466993974514305,-2.029167155525088
1670388018342636500,4.614636474609375,-0.7432283505648374,-1.1429328942999244,-1.4898685553997755
1670388018352568600,4.624568603515625,-0.8383177870571613,-0.8726784679509699,-1.1007289525598287
1670388018362499600,4.63449951171875,-0.34804771399497986,-0.5880823586471379,-0.8037164292752742
1670388018372431600,4.644431640625,0.5432347705304622,-0.3434568790733814,-0.8969780658185481
1670388018382362600,4.654362548828125,1.1205372303575276,-0.23226211095452307,-1.0399947901338338
1670388018392294700,4.664294677734375,1.5561211889863014,0.03786956579759717,-0.8636047885268926
1670388018402225400,4.674225341796875,1.8089257372319698,0.11672054580301046,-0.7900327718377113
1670388018412157400,4.684157470703125,2.3328794687092302,0.015972791288048026,-0.8532564129918814
1670388018422088700,4.694088623046875,2.645376561373472,0.006968231577426195,-0.8524059336423874
1670388018432020500,4.7040205078125,2.074198137384653,-0.17102262935489415,-0.5883353104948997
1670388018441952500,4.713952392578125,1.1702467254221438,-0.2835366633787751,-0.1661824958473444
1670388018451883500,4.723883544921875,0.10055062450766562,-0.4854948214843869,-0.12793430599570274
1670388018461815600,4.733815673828125,-2.0621903042048215,-0.729502607551217,-0.06036299102604389
1670388018471746600,4.74374658203125,-3.416773606324196,-1.3778675854645668,-0.2059568723529577
1670388018481678600,4.7536787109375,-3.8035575859487056,-1.686102344509214,-0.5521627578735351
1670388018491609600,4.763609619140625,-4.018952733254433,-1.7491221336543559,-1.3365467101693154
1670388018501541600,4.773541748046875,-4.356663177630305,-1.299188308764249,-1.9235563250184058
1670388018511472400,4.783472412109375,-3.56426893735826,-0.8973398848682641,-1.7976988252967594
1670388018521404400,4.793404296875,-2.029215670841932,-0.03653524845391512,-1.3831564856529235
1670388018531335700,4.803335693359375,-0.9872387669801711,0.4912862643674016,-0.5401745061770081
1670388018541267700,4.813267822265625,-1.100939380440116,0.6889220292292535,-0.10550532430559396
1670388018551198500,4.823198486328125,-1.5989578756719827,0.5167762410633265,0.2571668351083994
1670388018561130500,4.833130615234375,-1.7699626771092414,0.16173749913722277,0.775904000981152
1670388018571061500,4.8430615234375,0.36949499117136,-0.14616598212644458,0.7916229636386036
1670388018580993500,4.85299365234375,2.009937554398179,-0.18105375563427806,0.8735236135382205
1670388018590924500,4.862924560546875,2.0212971528023482,-0.2918997103154659,1.4964786211892962
1670388018600856600,4.872856689453125,1.5382523548185825,-0.5193946068681776,2.259271796184778
1670388018610787600,4.88278759765625,1.0635673889011144,-0.5275311515726149,2.88091141038835
1670388018620719400,4.89271923828125,0.7064706915318966,-0.2814673097588122,3.1913211753845214
1670388018630650600,4.902650634765625,0.4272223729968071,0.04552928677052259,3.246538620215654
1670388018640582700,4.912582763671875,0.29125673623681064,0.445765307033807,3.057151774391532
1670388018650513700,4.922513671875,0.11326046847701073,0.78227675088346,2.712317177224159
1670388018660445400,4.932445556640625,-0.2421855390757322,0.7495410408429801,2.410102993643284
1670388018670377500,4.94237744140625,-0.6100584820032119,0.7402418820999562,2.0316773847803473
1670388018680308500,4.95230859375,-0.8419815702617168,0.766649850423634,1.6124287671416997
1670388018690240500,4.962240478515625,-0.863546336337924,0.7251800681769848,1.2420933796234428
1670388018700171500,4.972171630859375,-0.64639236266613,0.736694272620976,0.934489173567295
1670388018710103600,4.982103515625,-0.3896943141132593,0.7329281980857253,0.9640816171459853
1670388018720034600,4.99203466796875,-0.27359891447126866,0.5274734300360083,1.1551524705342948
1670388018729966600,5.001966552734375,-0.32753859445154665,0.3389692122653126,1.2766440301313995
1670388018739897600,5.011897705078125,-0.5658049142569304,0.10029197357147931,1.334449153368175
1670388018749829600,5.02182958984375,-0.7812327947884797,-0.2226097548596561,1.4416916767299175
1670388018759760600,5.0317607421875,-0.8167787399441003,-0.40969884513542054,1.571907371661067
1670388018769692400,5.0416923828125,-0.649941579580307,-0.13200579321831463,1.5302753845900297
1670388018779623400,5.05162353515625,-0.37590661177933216,0.24960166055113076,1.430183317504823
1670388018789555500,5.061555419921875,-0.06426759724915027,0.6494627100221813,1.6592296812832354
1670388018799486700,5.07148681640625,-0.03602116145193576,1.1147966408789156,2.0814833259567616
1670388018809418500,5.08141845703125,-0.058576692131161685,1.5670694301106034,2.201936044025421
1670388018819349500,5.091349609375,-0.20880641656517981,1.8436239795170724,2.1335154187500476
1670388018829281500,5.101281494140625,-0.3155880444169044,1.6720051378346978,2.1276316214084625
1670388018839212500,5.111212646484375,-0.4077139549285173,1.6851365682169794,2.051735545685887
1670388018849144600,5.12114453125,-0.37068975391387937,1.2034773793727158,2.1871008784651753
1670388018859075600,5.13107568359375,-0.517889901393652,1.3229611062787472,2.082998698955774
1670388018869007600,5.141007568359375,-0.2542009710401296,0.4992560742028057,2.4392624526321884
1670388018878938400,5.1509384765625,-0.5413508564800024,1.0093826481185852,2.758709510564804
1670388018888870400,5.160870361328125,-0.42668227477073667,1.8303440805748104,3.0094770000249147
1670388018898801700,5.1708017578125,-1.0313152245938777,2.653738731527328,2.8448160146564243
1670388018908733700,5.180733642578125,-2.023688431853056,3.1607045033246277,0.9740332484483718
1670388018918665700,5.190665771484375,-1.6727566868543624,2.6899720744252202,-0.20239830308854578
1670388018928596500,5.200596435546875,-1.3341297121554612,2.2478451238937676,-1.4675328049510716
1670388018938528500,5.210528564453125,-0.0593517681568861,2.112772198189795,-2.4490882655978203
1670388018948459500,5.22045947265625,1.6511545113772153,2.453683776694536,-2.9770085626184937
1670388018958391600,5.2303916015625,3.1240479665786025,1.9836682638928294,-3.667121993589401
1670388018968322600,5.240322509765625,4.152707708227634,0.5165549995280801,-3.7271594059228894
1670388018978254600,5.250254638671875,4.727986553272605,0.22326076611429452,-3.637382104364037
1670388018988185600,5.260185546875,7.0327429203033445,1.0448860693067312,-2.7573446519523857
1670388018998117400,5.270117431640625,13.695703264665603,1.6093179416447876,-0.48643970111906526
1670388019008048600,5.280048583984375,11.457169136083126,0.9065047497071326,-3.3120874894469976
1670388019017980700,5.289980712890625,5.430887569624185,0.7023435285992919,-5.5104345690697425
1670388019027911400,5.299911376953125,2.64856074436754,-0.2214177685961127,-5.041824539151787
1670388019037843500,5.309843505859375,0.9262696267545223,-0.45166970877200363,-4.530246889644861
1670388019047774500,5.3197744140625,-0.2786982834368944,-0.5713758462570607,-3.4056028084903955
1670388019057706500,5.32970654296875,-0.4130027089864015,-1.0575609880931676,-2.1462533197700977
1670388019067637500,5.339637451171875,-0.18133885618597267,-1.2990407169871032,-0.9651046765834093
1670388019077569500,5.349569580078125,-0.03896510594934225,-0.8704089155837893,-0.1433949099779129
1670388019087500500,5.35950048828125,-0.08110036636739969,-0.2665871360130608,0.6007113924652338
1670388019097432600,5.3694326171875,-0.3463008703276515,0.17116013812944292,1.1461644235670565
1670388019107363600,5.379363525390625,-0.6165738552466035,0.3785547882005572,1.2112193718016147
1670388019117295600,5.389295654296875,-0.8368371931105851,0.2667113469146192,1.0569184524059294
1670388019127226600,5.3992265625,-0.871086376453936,0.14998305619657037,0.7103928334116936
1670388019137158700,5.40915869140625,-0.622486586421728,0.18581074090301988,0.42372517853081226
1670388019147090400,5.41909033203125,-0.31205490185469387,0.4224105888009071,0.4570779975563287
1670388019157021400,5.429021484375,-0.10655468722805381,0.6203012052066624,0.383180402174592
1670388019166953500,5.438953369140625,-0.04385945386216044,0.6371567706786095,0.1053618241816759
1670388019176884700,5.448884765625,-0.13900880384817718,0.48732905117422337,0.03197217832207679
1670388019186816500,5.45881640625,-0.3555962296783924,0.5483011140093207,0.23424831633567808
1670388019196748000,5.468748046875,-0.5704506942361592,0.6904127061784266,0.43134617492854593
1670388019206680000,5.47868017578125,-0.707587128341198,0.7294112760059535,0.6805787099063396
1670388019216611000,5.488611083984375,-0.7541145593035966,0.7158034602835774,0.9188035286575555
1670388019226542800,5.49854296875,-0.7737462384253739,0.7283588443435728,1.0780880816847085
1670388019236474000,5.50847412109375,-0.7523088981211185,0.8412409810274839,0.7439473124891519
1670388019246406100,5.51840625,-0.6753612675189972,0.6894008987873792,0.21535013912022113
1670388019256337000,5.5283369140625,-0.703098000228405,0.43769700525999067,-0.4026601786702871
1670388019266269000,5.53826904296875,-0.8488777595162391,-0.033821897841989995,-0.9971136797845364
1670388019276200000,5.548199951171875,-0.8527706753015518,-0.010540098714828491,-1.6348317376077175
1670388019286132200,5.55813232421875,-0.9158931211035698,0.07562631887048482,-2.1934183910489082
1670388019296063000,5.56806298828125,-1.1946775484539567,0.25966800427436826,-2.587255796316266
1670388019305995000,5.5779951171875,-1.6446693871416151,0.33779783039838074,-2.7299709073364733
1670388019315926000,5.587926025390625,-2.1151438957571984,0.2297185639515519,-2.741170346742868
1670388019325858000,5.597858154296875,-2.4318062914073466,-0.01056932480931282,-2.5726930179566145
1670388019335789000,5.6077890625,-2.4856620924964545,-0.28841332950443027,-2.2882833711355923
1670388019345721000,5.61772119140625,-2.473156538927555,-0.5884527993947267,-1.846712154790759
1670388019355652000,5.627652099609375,-2.5684035040691495,-0.7378907889291644,-1.2363941450685263
1670388019365584100,5.637584228515625,-2.5485879197478294,-0.5374664162620901,-0.673410717973113
1670388019375516000,5.647515869140625,-1.922125415432453,-0.374230202999711,0.16526888813376425
1670388019385447000,5.657447021484375,-0.32713089043349025,-0.41721331241875886,1.920118751785159
1670388019395379000,5.66737890625,0.03867050691694021,-0.38352351652383804,1.369947459989786
1670388019405310000,5.67731005859375,0.7556696067258715,-0.17463146750181913,1.2350041520148516
1670388019415242000,5.687241943359375,1.4089558205589652,0.2052411252990365,1.2187883457511663
1670388019425173000,5.697173095703125,1.6874781629070639,0.32820027323067186,1.3719360034584998
1670388019435105000,5.70710498046875,1.179062484562397,0.20096271732747553,1.530630773898959
1670388019445036000,5.7170361328125,0.34667817920744415,0.13967472041100262,1.6899632577210664
1670388019454968000,5.726968017578125,-0.48319034393429755,0.04983633631467819,1.6252788963645695
1670388019464899000,5.736899169921875,-1.0649152963787316,0.13239450027495622,1.269140230372548
1670388019474831000,5.7468310546875,-0.8607222188279032,0.22684651564657687,0.7521580914735794
1670388019484761900,5.756761962890625,-1.0531143839478492,0.006675239980220795,0.2350011805295944
1670388019494694000,5.76669384765625,-1.2176274852782487,-0.3076081515789032,-0.007059855383634567
1670388019504625200,5.776625244140625,-1.0168260959923268,-0.5447989511072635,0.07272212186157703
1670388019514557200,5.78655712890625,-0.7322434306919574,-0.5597878459244966,0.29415947194099423
1670388019524488000,5.796488037109375,-0.8700392054885625,-0.5167638199731708,0.26903029138147827
1670388019534420000,5.806419921875,-1.3449153100639581,-0.6299506386920809,-0.09421616078913211
1670388019544351000,5.81635107421875,-0.5865548568189144,-0.7118874558836221,-0.24032032972574233
1670388019554283300,5.826283203125,0.20613982770442962,-0.4582866426937282,-0.15937398487627505
1670388019564214000,5.836214111328125,0.45171851634979243,-0.2518289812117815,0.10233575435876846
1670388019574146000,5.84614599609375,0.5776829835772515,-0.16148016337528823,0.551972788259387
1670388019584077000,5.8560771484375,1.0802537352859973,0.23332038783580064,1.103688386887312
1670388019594008800,5.8660087890625,1.188183948650956,0.854269681687653,1.208574410250783
1670388019603940000,5.875940185546875,0.37208500766456126,0.683238430634886,0.9219003256291151
1670388019613872000,5.8858720703125,0.6753244426399468,0.6859308845892548,0.8115297333747148
1670388019623804200,5.89580419921875,0.5803922425359487,0.7789693799011409,0.509791935133934
1670388019633735000,5.90573486328125,-0.05672668035030365,0.6280261003702878,0.22440262962579727
1670388019643667000,5.9156669921875,-0.4023082964926958,0.27831907486096025,0.04469079011976718
1670388019653598000,5.925597900390625,-0.6556891833215952,-0.03511500639244914,-0.1858499038696289
1670388019663530000,5.935530029296875,-0.6414174968630075,-0.239739022706449,-0.2717068171143532
1670388019673461000,5.9454609375,-0.30993045704662797,-0.2919510021112859,-0.18489830223321913
1670388019683393000,5.95539306640625,-0.2167857248812914,-1.100897879385948,-0.49570671115815634
1670388019693324000,5.965323974609375,-0.6708820762783289,-1.9259004039265215,-0.9921657019883393
1670388019703256000,5.975256103515625,-0.31380408360958095,-1.2695369746051728,-0.5443155515044927
1670388019713187000,5.98518701171875,0.31716157734394074,-0.8737060574330389,-0.4110702796190977
1670388019723119000,5.995119140625,0.45556993108093735,-0.8628959096051753,-0.2982078705489635
1670388019733050000,6.005050048828125,0.6288450155377387,-0.4516080417126417,-0.005061375042796135
1670388019742982100,6.014982177734375,0.6246089854031801,0.11031140941306948,0.20442659404575825
1670388019752913000,6.024912841796875,0.29186639256775376,0.3221889039866626,0.275243174546957
1670388019762845000,6.034844970703125,-0.15441256307661533,0.31237814245969053,0.3044382893711328
1670388019772776200,6.044776123046875,-0.35486966896951194,0.2613492353595793,0.3162549838930368
1670388019782708000,6.0547080078125,-0.39787703604698177,0.1118662376396358,0.2881324667364359
1670388019792639000,6.064638916015625,-0.20147183589339254,-0.0017316460981965064,0.40333705501854417
1670388019802571000,6.074571044921875,0.05406476766467094,-0.0015004676908254623,0.40379473565816876
1670388019812502300,6.084502197265625,0.10775310323238373,0.09491320314258336,0.19640636919736862
1670388019822434000,6.09443408203125,0.07445464474260807,0.11775471115633844,0.060980830663442606
1670388019832365000,6.104364990234375,0.1629097577869892,0.24215251358896492,0.006243862825632095
1670388019842297000,6.114297119140625,0.24263269832134246,0.3814084240660071,0.07356792503595352
1670388019852227800,6.124227783203125,0.17009586989879608,0.27631328799650073,0.08154372622072696
1670388019862160000,6.134159912109375,0.06844400615096091,0.15689634271636604,0.19573241545856
1670388019872092000,6.144091796875,0.12077508189082145,0.20576631821691987,0.6667839933097363
1670388019882023200,6.154023193359375,0.31524434554576874,0.171541392531991,1.240105859068036
1670388019891955200,6.163955078125,0.38397944359779357,0.40314065566360946,1.6049410417348144
1670388019901886000,6.173885986328125,0.6035913318157196,0.5581564453303813,1.9135510638326405
1670388019911818000,6.18381787109375,0.6384130543500185,0.5843377652913332,1.852916854649782
1670388019921749000,6.1937490234375,0.32525077577531336,0.3829410404607653,1.3173404899179935
1670388019931681000,6.203680908203125,-0.07507248438000678,-0.14170958723947405,0.126014736109972
1670388019941612000,6.213612060546875,-0.09350947382450103,-0.5435851914033294,-0.662687079384923
1670388019951544000,6.2235439453125,0.0019178163200616835,-1.0589598951056598,-1.3996429255515337
1670388019961475000,6.23347509765625,-0.018420622831583022,-1.0032987981602548,-1.2989835799723863
1670388019971406800,6.24340673828125,-0.017329904985427854,-0.8082083338670432,-0.6980617596268653
1670388019981338000,6.253338134765625,0.21333061599135397,-0.8921994532398879,-0.4925912094861269
1670388019991270100,6.263270263671875,0.5772820015609263,-0.44540509541928763,0.12705050889849662
1670388020001201200,6.273201171875,0.8037170137971639,-0.11938728079423308,0.9044716364443302
1670388020011133000,6.2831328125,1.6881670219540594,-0.27424159628897904,1.3538567414104938
1670388020021064000,6.29306396484375,2.855402290600538,-0.47678676050230856,1.6367150671362876
1670388020030996000,6.302995849609375,2.6877193270623683,-0.1289377839498222,2.2413263896495104
1670388020040927000,6.312927001953125,1.869185267883539,-0.5670156052209436,2.444823301629722
1670388020050859000,6.32285888671875,0.6372749902307987,-1.196542173282057,1.5643945118129252
1670388020060790000,6.3327900390625,-0.6707984896481036,-0.7161141336679459,0.8425558630183339
1670388020070722000,6.34272216796875,-1.7796458667337893,1.0918781221061944,1.0066142063185572
1670388020080653000,6.352653076171875,-2.3130969098746776,1.4781556135132907,0.5292749265000224
1670388020090585000,6.362585205078125,-2.273489122107625,0.8588841166805475,-0.2281307102382183
1670388020100516000,6.37251611328125,-2.1695283968955277,0.1725702241230756,-0.4102338287949562
1670388020110448000,6.3824482421875,-1.752988161432743,0.21868717458844183,0.09386457087248563
1670388020120380000,6.3923798828125,-1.2521674682617188,0.20784064027294516,0.43664282003194094
1670388020130311000,6.402310791015625,-0.845793237504363,0.06773088944554329,0.37165421503186225
1670388020140243000,6.412242919921875,-0.42543841218948364,0.08397124562859534,-0.22407558962851762
1670388020150174200,6.42217431640625,0.168626381868124,-0.07522051454856991,-0.7294359720557928
1670388020160106000,6.43210595703125,0.783703568816185,0.22626330893114208,-0.11119009194374084
1670388020170037000,6.442037109375,0.8851531879901885,0.62280471246019,0.6661176383554935
1670388020179969000,6.451968994140625,0.855083043897152,0.5726397287130356,0.3005341215394437
1670388020189900000,6.461900146484375,0.8097697379648685,0.03368322002366185,-0.4039185081683099
1670388020199831600,6.47183154296875,0.44324294894933697,-0.14387918636351824,-0.8194704632461071
1670388020209762600,6.481762451171875,-0.021892682856321333,-0.22241452454850077,-0.6231260533690453
1670388020219694600,6.491694580078125,-0.20120529391169548,-0.31035379702523347,-0.0058133624538779256
1670388020229625300,6.501625244140625,-0.11500526631772517,-0.4506443112470209,0.3951522872582078
1670388020239557600,6.5115576171875,0.33077158502340315,-0.07790478519648313,0.25133316051885485
1670388020249488600,6.521488525390625,0.34512393550276754,-0.37728126113340255,-1.0563238475136458
1670388020259420700,6.531420654296875,-0.405855175319314,0.11723726315349339,-1.934046008720249
1670388020269351400,6.541351318359375,-1.3783271658003329,0.696955405820161,-1.9516129373319446
1670388020279283500,6.551283447265625,-1.7641589592665432,0.5915045881807803,-1.3638216705858706
1670388020289214700,6.561214599609375,-1.676578875491023,1.625811395806074,-0.010358314690424595
1670388020299146800,6.571146728515625,-1.2852899856626987,1.3560283863611517,0.19391681740395725
1670388020309077500,6.581077392578125,-1.9814929656803606,1.0139467411637306,-0.8465496088296175
1670388020319009500,6.591009521484375,-3.504443706470728,1.7007979554682968,-2.124148163206875
1670388020328940500,6.6009404296875,-4.500279036882519,2.0758004580147564,-3.8137484328344464
1670388020338872300,6.610872314453125,-4.60829926661849,2.5067028346985576,-7.306630004066228
1670388020348803600,6.620803466796875,-5.599764126861095,2.6627777780294415,-9.114828596067428
1670388020358735600,6.630735595703125,-6.529246870443225,2.6326997428908943,-8.762621424305438
1670388020368667600,6.640667724609375,-5.604259100192785,2.190091000191867,-5.452060121512413
1670388020378598400,6.650598388671875,-1.2964841643720864,0.5848610585130751,2.2385575094580648
1670388020388530400,6.660530517578125,2.8424358415216204,-3.1213872229367494,7.408339735481142
1670388020398461700,6.670461669921875,3.640571255794167,-3.368646412014961,10.24634373203516
1670388020408393700,6.680393798828125,2.1386106960624454,1.3918866123363376,13.262533965963124
1670388020418324500,6.690324462890625,-1.0151233837276696,2.559064305576682,12.428375636672973
1670388020428256500,6.700256591796875,-4.744754440461099,-0.847115426018834,6.006161738494038
1670388020438187500,6.7101875,-1.0200941578775644,-1.2762974086508154,2.897141245177388
1670388020448119600,6.72011962890625,4.619588722395896,-0.5167939228504896,4.101179765564203
1670388020458050600,6.730050537109375,6.0703890037328,-0.6469476584613323,2.8621587791234253
1670388020467982600,6.739982666015625,5.815588313233852,-0.4753241406038403,2.0871108104497194
1670388020477913600,6.74991357421875,5.4148804376751185,-0.3083905341282487,2.5917916861802337
1670388020487845400,6.759845458984375,4.8764521906435485,0.04384557146728039,2.4794407337635755
1670388020497776400,6.7697763671875,3.575057457876205,0.7977642428725957,1.9140812251865862
1670388020507708700,6.779708740234375,2.070973914641142,1.0183101970702408,1.0200123248130082
1670388020517639700,6.7896396484375,0.6726642835199832,0.7810939708396792,-0.02736614583134651
1670388020527571500,6.799571533203125,-0.3788303902715444,0.46641734217926856,-0.9073159199595451
1670388020537502500,6.80950244140625,-1.1707251565888523,0.37554756920859217,-1.2882049963265656
1670388020547434500,6.8194345703125,-1.6127069995611905,0.26745909654200073,-1.3064853339046238
1670388020557365500,6.829365478515625,-2.016549081492424,0.01868862611800432,-1.5248545285850763
1670388020567297500,6.839297607421875,-2.2989076410025358,0.10865399759486317,-1.6827894205689429
1670388020577228500,6.849228515625,-2.6235014141738415,0.2744742360010743,-1.6270318775117396
1670388020587160600,6.85916064453125,-2.8503496833860873,0.2272220709607005,-1.273530574285984
1670388020597091300,6.86909130859375,-2.514953068910539,0.12160408006086945,-1.2792647340238092
1670388020607023400,6.8790234375,-1.8635303108617662,0.39202728710547086,-1.1630565216571092
1670388020616955400,6.888955322265625,-1.359196056611836,0.0416901469990611,-1.41373048761487
1670388020626886700,6.89888671875,-1.355849961054325,-0.6719421067252754,-2.209343689933419
1670388020636818700,6.908818603515625,-1.3935913704276084,-0.2520774760801345,-3.088231387788057
1670388020646749400,6.91874951171875,-1.4647826294600963,0.2639908359095454,-4.46247391462326
1670388020656681500,6.928681396484375,-0.9963000983793288,0.7941228176303208,-6.248824247431755
1670388020666612700,6.93861279296875,0.2551258308000862,1.0616772643055765,-5.802888406136631
1670388020676544500,6.94854443359375,2.1543813889071344,0.7591766649987548,-2.1599463295578953
1670388020686475500,6.9584755859375,3.441148753646016,0.27187282133102414,3.3824469738304614
1670388020696407600,6.968407470703125,-1.626529773208499,-0.1511915552034974,6.919151027914881
1670388020706338600,6.978338623046875,-9.054712857800721,-0.1427893453001976,11.71391686899662
1670388020716270300,6.988270263671875,-2.6529905435085297,-0.7151072947129606,8.238979827517271
1670388020726201600,6.99820166015625,2.6329066636398433,-1.811637042017281,5.486872491696476
1670388020736133600,7.008133544921875,4.835048751631379,-1.51055215472728,3.1441344767957924
1670388020746064400,7.018064453125,5.8028778847426175,0.16223609630912542,1.0594155299186705
1670388020755996400,7.027996337890625,4.587016240093112,1.760069644126296,2.6183739881575105
1670388020765927700,7.037927734375,3.097568540453911,1.8680176854088901,3.464346089360118
1670388020775859700,7.047859619140625,1.0508248117059469,0.9048945380315184,3.0966350589960814
1670388020785790500,7.05779052734375,-0.5498965665072202,0.19545359851717947,3.1243115859508515
1670388020795722500,7.067722412109375,-0.727037094220519,0.4843228550955653,3.1372505625009537
1670388020805653500,7.077653564453125,-0.46781449562609195,-0.45421384029686446,1.9809037676155565
1670388020815585500,7.08758544921875,-0.021895605465769765,-0.16342121444046495,1.3506898018121718
1670388020825516500,7.0975166015625,0.09461363567411898,0.30629907827433195,1.004169443514943
1670388020835448600,7.107448486328125,0.034680852758884426,0.5591457486286759,0.7404863583803176
1670388020845379600,7.117379638671875,0.16186697073578835,0.8124965325802564,0.3793500302314758
1670388020855311600,7.1273115234375,0.5046282687604428,0.9039175096929073,-0.1179360590726137
1670388020865243400,7.137243408203125,0.8179471992015838,0.6984750166028738,-0.33354221878051754
1670388020875174400,7.14717431640625,1.1185247214913367,0.5382695493385196,-0.29619711524844167
1670388020885106700,7.157106689453125,1.3234282853990793,0.3742647628564387,-0.2516460258603096
1670388020895037700,7.16703759765625,1.4374164836287497,0.1731333378985524,-0.3047480859726667
1670388020904969500,7.176969482421875,1.532943727016449,0.056905836309492586,-0.37555882125496864
1670388020914900500,7.186900390625,1.439428407973051,0.1226616262897849,-0.6970201416194438
1670388020924832500,7.19683251953125,1.0639806458771228,0.08802592784687877,-1.1464257048517466
1670388020934763500,7.206763427734375,0.7843816142082214,0.021567250294238328,-1.3225041562914848
1670388020944695600,7.216695556640625,0.7380746210634708,0.06248378257229924,-1.293956107199192
1670388020954626600,7.22662646484375,0.6192056650549173,0.2715167013697326,-1.3305372406214475
1670388020964558600,7.23655859375,0.3763829971194267,0.5002689045071601,-1.3677648552536963
1670388020974489300,7.2464892578125,0.17877309735119343,0.5505924398168921,-1.2844225551784039
1670388020984421400,7.25642138671875,0.08233867599070072,0.46804888890385626,-1.1809674414008855
1670388020994352600,7.2663525390625,0.05015782335400581,0.3699452191568911,-1.154376956117153
1670388021004284700,7.27628466796875,0.028762568625807762,0.32196780858188867,-1.145218082627654
1670388021014215400,7.28621533203125,0.058575523087382314,0.21409677805826066,-1.0278162765622139
1670388021024147500,7.2961474609375,0.28098259498178957,0.1413008603081107,-0.8789864820539951
1670388021034078700,7.30607861328125,0.6264578281402587,0.1282663144290447,-0.6186363407343626
1670388021044010800,7.3160107421875,0.9956775095015764,0.1482110780879855,-0.3300581760570407
1670388021053941500,7.32594140625,1.0951789172172546,0.07458557764589786,-0.14098171135634183
1670388021063873500,7.33587353515625,0.9230863205432891,-0.15463643496036528,-0.20673954716324805
1670388021073804500,7.345804443359375,0.7851426617085934,-0.40238165398985143,-0.48992988132238385
1670388021083736300,7.355736328125,0.7335919226914643,-0.5043839386105538,-0.6848229233473538
1670388021093667600,7.36566748046875,0.5968471182525158,-0.5051940859496593,-0.7742045035868883
1670388021103599600,7.375599609375,0.4482084624022245,-0.4039990260586142,-0.6986562183886766
1670388021113530600,7.385530517578125,0.5347995351403951,-0.37777328243404623,-0.7069964689716697
1670388021123462400,7.39546240234375,0.7752817774295806,-0.5273734767928719,-0.8195940896257757
1670388021133394400,7.40539453125,0.8414765433490276,-0.711461485556513,-0.7515764921933412
1670388021143325400,7.415325439453125,0.868800019082427,-0.6904382790111004,-0.6975199078351259
1670388021153257700,7.4252578125,0.9124743256360291,-0.5945625144466757,-0.7912061995312571
1670388021163188500,7.4351884765625,0.7015601231366395,-0.5223522876299918,-0.9442506891250609
1670388021173120500,7.44512060546875,0.4201028963804245,-0.5421788317367434,-0.9956143811374902
1670388021183051500,7.455051513671875,0.2794774511158466,-0.5290808652326464,-0.9335457552373408
1670388021192983800,7.46498388671875,0.09090250619649887,-0.4554825450584292,-0.7871814740598201
1670388021202914800,7.474914794921875,-0.21097908442914484,-0.39195086086839437,-0.5646630507454276
1670388021212846800,7.484846923828125,-0.4253887278288603,-0.3605825667236,-0.47550212751924986
1670388021222777900,7.49477783203125,-0.4797890110582113,-0.39648499716669316,-0.48801674117743965
1670388021232710000,7.5047099609375,-0.6383551866829394,-0.4294056353200227,-0.5446558893747627
1670388021242640600,7.514640625,-0.8081938669502735,-0.42946021505147214,-0.7253688687473535
1670388021252572700,7.52457275390625,-0.765713738617301,-0.40669937105849385,-0.9102572341084479
1670388021262504000,7.53450390625,-0.7514993353039026,-0.31341976046711206,-1.0729882743276655
1670388021272436000,7.54443603515625,-0.793643948072195,-0.15553130144085733,-1.0787133739762007
1670388021282366700,7.55436669921875,-0.733199123981595,-0.04931665982212871,-0.91597911888659
1670388021292298800,7.564298828125,-0.47916766428947444,0.05894424680192023,-0.727947194802761
1670388021302229800,7.574229736328125,-0.26580840672552586,0.14388565263692288,-0.48359614825621244
1670388021312161800,7.584161865234375,-0.19680267503857612,0.2901993726709857,-0.1341720313414931
1670388021322092800,7.5940927734375,-0.17125731489360332,0.5104161679795012,0.10305077076032756
1670388021332024800,7.60402490234375,-0.22608546814620495,0.6318195013038813,0.11821969831958412
1670388021341955800,7.613955810546875,-0.25947628109455106,0.7533398486040532,0.059089902350306506
1670388021351887600,7.6238876953125,-0.3386211294800043,0.8459837916404008,0.0067838149212300775
1670388021361819000,7.63381884765625,-0.3881850785940885,0.9147321875654161,-0.15232348184287547
1670388021371751000,7.6437509765625,-0.44313831953108307,0.9524658520236611,-0.34641017592102286
1670388021381681700,7.653681640625,-0.5863403372853994,0.9073873777605592,-0.4734093930236995
1670388021391613700,7.66361376953125,-0.6064969901293515,0.8059182501684874,-0.616747312117368
1670388021401545700,7.673545654296875,-0.5827320836603641,0.7027841119736432,-0.6754775873750448
1670388021411476700,7.683476806640625,-0.5277940402925014,0.6627868134323507,-0.5962665418855846
1670388021421408800,7.69340869140625,-0.5010194306135177,0.5803246206598356,-0.5457344783917069
1670388021431339800,7.70333984375,-0.4546966553777456,0.4929317300194874,-0.5766968951493502
1670388021441271800,7.713271728515625,-0.385332611772418,0.4071995756655931,-0.4563244027100503
1670388021451202800,7.723202880859375,-0.220501530534029,0.2678278202565387,-0.24308979443907736
1670388021461134600,7.733134521484375,-0.001340308693051338,0.15822518016733228,-0.11368702332600951
1670388021471065900,7.74306591796875,0.15384674588739872,0.1144012360099703,-0.14919512068927288
1670388021480998000,7.752997802734375,0.2699287015259266,0.11154518899172544,-0.3180053346917033
1670388021490929000,7.762928955078125,0.274618320646882,0.12811938023902475,-0.5664465731613337
1670388021500860700,7.772860595703125,0.20165011506974695,0.07567329981736838,-0.7660467699639498
1670388021510791700,7.782791748046875,0.07265723993182181,-0.02845182217620313,-0.7775111439168453
1670388021520723700,7.7927236328125,-0.08412322131991386,-0.1488522255357355,-0.661463675069809
1670388021530654700,7.80265478515625,-0.12187807469666004,-0.28641959840394554,-0.4840891924701631
1670388021540586800,7.812586669921875,0.04171732726693153,-0.5188670758627355,-0.33672114107757806
1670388021550517800,7.822517822265625,0.4312947370022535,-0.8034813053451478,-0.19371055424213407
1670388021560449800,7.83244970703125,0.592650251084566,-0.889619958140701,-0.07943959354832768
1670388021570380800,7.842380859375,0.549762710994482,-0.9132485979441552,-0.09210311415791511
1670388021580312800,7.852312744140625,0.40793139707148074,-0.8427632221587001,-0.07644128851518034
1670388021590243800,7.862243896484375,0.21077450176775453,-0.6931641968436538,0.015343991865217685
1670388021600175900,7.87217578125,0.06136661511063576,-0.49304786721244453,0.10439940889030694
1670388021610106600,7.882106689453125,-0.06029051031172275,-0.32443186060786244,-0.0029629414588212967
1670388021620038700,7.89203857421875,-0.1311123515099287,-0.159218355923146,-0.13207827393263577
1670388021629970000,7.901969970703125,-0.24499708936512468,-0.0727773591801524,-0.15976400710716843
1670388021639902000,7.91190185546875,-0.30797464680373665,-0.02597330323345959,-0.10305413176119327
1670388021649832700,7.921832763671875,-0.28319091868102547,0.04161810467615723,0.0023997546181082725
1670388021659764700,7.9317646484375,-0.23772271444797513,0.14706570744514463,0.10233005527034401
1670388021669696800,7.94169677734375,-0.20819383762478827,0.24903598949238656,0.09545914658755063
1670388021679627800,7.951627685546875,-0.12332067472040653,0.36564788728915154,-0.01182721591591835
1670388021689559800,7.961559814453125,-0.0648375060915947,0.4729286968346685,-0.1168321894839406
1670388021699490800,7.97149072265625,0.0022568390160799027,0.5242783603217452,-0.19440233589857817
1670388021709422800,7.9814228515625,0.052068625411391255,0.5492299192920327,-0.16348931124061344
1670388021719353600,7.991353515625,-0.045775662747025485,0.5420605391193181,-0.071586395829916
1670388021729285600,8.00128564453125,-0.15883271760642528,0.5111327552836388,0.0013989070124924181
1670388021739217000,8.011216796875,-0.20937048018872736,0.40217181063145396,0.03736439275443554
1670388021749149000,8.02114892578125,-0.1601823786497116,0.2153351607467979,0.09482859359905123
1670388021759079700,8.03107958984375,-0.14914076015353203,0.08801255690865219,0.20512407479062675
1670388021769011700,8.04101171875,-0.25582594189345836,-0.012953005075454712,0.1813390023164451
1670388021778942700,8.050942626953125,-0.6047445935040712,-0.24610950758643446,-0.07036927512511611
1670388021788874800,8.060874755859375,-0.8679752586960792,-0.07483297653570771,-0.3554679271236062
1670388021798805800,8.0708056640625,-0.13376666541099547,-0.15376125956103204,-0.3583503506921232
1670388021808737800,8.08073779296875,0.19322014037668703,-0.2969157849118113,-0.5016713186509907
1670388021818668800,8.090668701171875,0.20652970380485056,-0.2142427624002099,-0.4542706850506365
1670388021828600800,8.100600830078125,0.4509931246846914,-0.2953444439418614,-0.4273175039343536
1670388021838531800,8.11053173828125,0.5298801989167928,-0.41586131328791376,-0.44677550698965784
1670388021848464000,8.1204638671875,0.4718804298907518,-0.3871135038398206,-0.4280547321677208
1670388021858395000,8.130394775390625,0.38760581740140915,-0.28066797607466576,-0.4521742972932756
1670388021868327000,8.140326904296876,0.3138414930105209,-0.22140987755060196,-0.49226285431459543
1670388021878257700,8.150257568359375,0.31045769579112525,-0.17037790171056985,-0.4904240945801139
1670388021888189700,8.160189697265626,0.20537410402894019,-0.12693389678150416,-0.4103837586596608
1670388021898121000,8.170120849609376,0.07457680981755256,-0.07674728572443128,-0.33000688426122066
1670388021908052700,8.180052734375,0.006817863321304321,0.12814619518071413,-0.3508050498791039
