time,seconds_elapsed,z,y,x
1670388013754274800,0.02627490234375,0.004367423243820667,0.021272117272019386,0.03642870858311653
1670388013764205800,0.036205810546875,0.0024997484870254993,-0.013227004557847977,0.013498891144990921
1670388013774137900,0.046137939453125,0.00126843829639256,-0.04084627330303192,-0.00582519918680191
1670388013784069000,0.056069091796875,-0.0007859240286052227,-0.04824719950556755,-0.0179753378033638
1670388013794001000,0.0660009765625,0.002334349788725376,-0.0350775271654129,-0.011343651451170444
1670388013803932000,0.075931884765625,0.00816241092979908,-0.012636400759220123,-0.0000302768312394619
1670388013813864000,0.085864013671875,0.016274649649858475,0.01084864977747202,0.00686365831643343
1670388013823795000,0.095794921875,0.015873044729232788,0.03765442967414856,0.008591516874730587
1670388013833727000,0.10572705078125,0.009970886632800102,0.05470460280776024,0.006480702199041843
1670388013843659000,0.115658935546875,0.0047750589437782764,0.049275483936071396,-0.007325390819460154
1670388013853590000,0.125590087890625,-0.0003800585400313139,0.027059540152549744,-0.02694379910826683
1670388013863522000,0.13552197265625,-0.0032307058572769165,0.001188261667266488,-0.04650125652551651
1670388013873452800,0.145452880859375,-0.0018193400464951992,-0.019130371510982513,-0.055507317185401917
1670388013883384800,0.155384765625,0.0009740495588630438,-0.03234976902604103,-0.050260089337825775
1670388013893316000,0.165316162109375,0.0052225906401872635,-0.03409094363451004,-0.036530960351228714
1670388013903248000,0.175247802734375,0.017269931733608246,-0.026889756321907043,-0.016505319625139236
1670388013913179000,0.185178955078125,0.023468252271413803,-0.0032883372623473406,0.003318900242447853
1670388013923111000,0.19511083984375,0.026019826531410217,0.012514062225818634,0.01377686858177185
1670388013933042200,0.205042236328125,0.022856896743178368,0.01632908545434475,0.028358787298202515
1670388013942974000,0.214973876953125,0.02173570543527603,0.00974362064152956,0.033064860850572586
1670388013952905000,0.224905029296875,0.019865594804286957,-0.007279937155544758,0.02575533092021942
1670388013962837000,0.2348369140625,0.021177202463150024,-0.031542666256427765,0.01960582472383976
1670388013972768000,0.24476806640625,0.015225277282297611,-0.047930758446455,0.014635808765888214
1670388013982699800,0.25469970703125,0.00717054633423686,-0.05146477371454239,0.011811260133981705
1670388013992631000,0.264631103515625,0.006787313148379326,-0.04731879383325577,0.0076158782467246056
1670388014002563000,0.27456298828125,0.0007102459203451872,-0.05448349565267563,0.005144731141626835
1670388014012493800,0.284493896484375,-0.0043351491913199425,-0.07487890124320984,0.004740762524306774
1670388014022425900,0.29442578125,-0.010651368647813797,-0.09502917528152466,0.010662034153938293
1670388014032356900,0.30435693359375,-0.016535289585590363,-0.11823920905590057,0.016876617446541786
1670388014042289000,0.314288818359375,-0.016445009037852287,-0.12143447250127792,0.02104100212454796
1670388014052221200,0.32422119140625,-0.016442878171801567,-0.1379609853029251,0.02773166075348854
1670388014062152000,0.33415185546875,-0.006918615195900202,-0.14451129734516144,0.04133109375834465
1670388014072084000,0.344083984375,0.0004894779995083809,-0.12604635953903198,0.05548122525215149
1670388014082015000,0.354014892578125,-0.010737876407802105,-0.10734377056360245,0.06866493821144104
1670388014091946800,0.36394677734375,-0.02496851049363613,-0.10317626595497131,0.07306143641471863
1670388014101878000,0.3738779296875,-0.03121388889849186,-0.11732217669487,0.07217860221862793
1670388014111810000,0.38381005859375,-0.041046690195798874,-0.14812767505645752,0.0568358339369297
1670388014121741000,0.393740966796875,-0.04389574006199837,-0.19069352746009827,0.03658489137887955
1670388014131672800,0.4036728515625,-0.04239899292588234,-0.21653158962726593,0.017246251925826073
1670388014141603800,0.413603759765625,-0.043633099645376205,-0.21591641008853912,0.005693725310266018
1670388014151535900,0.423535888671875,-0.04074941202998161,-0.19586117565631866,0.013040510937571526
1670388014161467000,0.433466796875,-0.038896650075912476,-0.1826990246772766,0.02931748703122139
1670388014171399000,0.44339892578125,-0.03637444227933884,-0.16702865064144135,0.04554910957813263
1670388014181330000,0.453329833984375,-0.020367780700325966,-0.16604913771152496,0.06422319263219833
1670388014191261700,0.46326171875,-0.007596335373818874,-0.2005227506160736,0.07632625102996826
1670388014201193000,0.47319287109375,0.003146057715639472,-0.2894555330276489,0.06910829246044159
1670388014211125000,0.483125,-0.004255484323948622,-0.37666526436805725,0.07126329839229584
1670388014221055700,0.4930556640625,-0.017726551741361618,-0.43648624420166016,0.028235670179128647
1670388014230987800,0.50298779296875,-0.05446147918701172,-0.48827698826789856,-0.06595759093761444
1670388014240918800,0.512918701171875,-0.08107604086399078,-0.43662282824516296,-0.10852847993373871
1670388014250850600,0.5228505859375,-0.09750133752822876,-0.36951330304145813,-0.1343376189470291
1670388014260781800,0.53278173828125,-0.10268118977546692,-0.2787333130836487,-0.10350914299488068
1670388014270713900,0.5427138671875,-0.08999642729759216,-0.14033165574073792,-0.048901744186878204
1670388014280646000,0.55264599609375,-0.05864622816443443,0.009060758166015148,0.01635022647678852
1670388014290576600,0.56257666015625,-0.0077497027814388275,0.13959336280822754,0.07842841744422913
1670388014300508700,0.5725087890625,0.03748275712132454,0.21181616187095642,0.1224728375673294
1670388014310440000,0.58243994140625,0.04993300884962082,0.2534322440624237,0.13594840466976166
1670388014320372000,0.5923720703125,0.015868516638875008,0.24872006475925446,0.11476695537567139
1670388014330302700,0.602302734375,-0.023597877472639084,0.19544927775859833,0.04741230607032776
1670388014340234800,0.61223486328125,-0.06969160586595535,0.09231436997652054,-0.06457255035638809
1670388014350165800,0.622165771484375,-0.11325650662183762,-0.001869992003776133,-0.1957741379737854
1670388014360097800,0.632097900390625,-0.1236492246389389,-0.10223201662302017,-0.3039724826812744
1670388014370028800,0.64202880859375,-0.09856213629245758,-0.14444942772388458,-0.3752284348011017
1670388014379960800,0.6519609375,-0.09063177555799484,-0.10396353155374527,-0.4076846241950989
1670388014389891800,0.661891845703125,-0.06528359651565552,-0.08780071884393692,-0.3776620328426361
1670388014399823600,0.67182373046875,-0.036880988627672195,-0.08431997150182724,-0.3162844181060791
1670388014409755000,0.6817548828125,-0.006719059310853481,-0.0788329690694809,-0.2371322065591812
1670388014419687000,0.69168701171875,0.033489082008600235,-0.04186642915010452,-0.12910772860050201
1670388014429618000,0.701617919921875,0.0604080930352211,0.005227707326412201,-0.05440095067024231
1670388014439549700,0.7115498046875,0.07343654334545135,0.058263760060071945,-0.006513053085654974
1670388014449480700,0.721480712890625,0.08156556636095047,0.08228679746389389,0.021582143381237984
1670388014459412700,0.731412841796875,0.0707070603966713,0.07675115019083023,-0.0032073580659925938
1670388014469344000,0.741343994140625,0.05623786523938179,0.08250180631875992,-0.023040056228637695
1670388014479275800,0.75127587890625,0.028791330754756927,0.054744478315114975,-0.04393282160162926
1670388014489206800,0.761206787109375,0.003928959369659424,0.022105325013399124,-0.07787778973579407
1670388014499138800,0.771138916015625,-0.0024868620093911886,0.002308185212314129,-0.0763627216219902
1670388014509070800,0.78107080078125,-0.00736117223277688,-0.021891985088586807,-0.05381593480706215
1670388014519001600,0.791001708984375,0.004144216421991587,-0.009043565019965172,-0.028558779507875443
1670388014528934000,0.800933837890625,0.020551268011331558,-0.002084918785840273,0.01400347612798214
1670388014538865000,0.810864990234375,0.029731716960668564,0.0028794799000024796,0.03309115022420883
1670388014548797000,0.820796875,0.02647695504128933,0.020174270495772362,0.03377127647399902
1670388014558727700,0.830727783203125,0.013015210628509521,0.0076917679980397224,0.019532419741153717
1670388014568659700,0.84065966796875,0.0033434820361435413,-0.02678346075117588,-0.0188194178044796
1670388014578591000,0.850591064453125,-0.01028524525463581,-0.055582351982593536,-0.03760828450322151
1670388014588522800,0.860522705078125,-0.026663295924663544,-0.0894443467259407,-0.05808614566922188
1670388014598453800,0.870453857421875,-0.04488251358270645,-0.09834888577461243,-0.07359638810157776
1670388014608385800,0.8803857421875,-0.04485134780406952,-0.09754697978496552,-0.07340666651725769
1670388014618316800,0.89031689453125,-0.03577476367354393,-0.08529457449913025,-0.049681637436151505
1670388014628248600,0.90024853515625,-0.02331712655723095,-0.07311917841434479,-0.04197307676076889
1670388014638179800,0.910179931640625,-0.003932509571313858,-0.07237482070922852,-0.0425693579018116
1670388014648111900,0.92011181640625,0.00876813568174839,-0.08054318279027939,-0.031071830540895462
1670388014658042600,0.930042724609375,0.011339950375258923,-0.08348251134157181,-0.0180503036826849
1670388014667974700,0.939974609375,0.005508342292159796,-0.08104010671377182,-0.025904519483447075
1670388014677906000,0.949906005859375,0.01812373660504818,-0.09355562925338745,0.0013476083986461163
1670388014687838000,0.959837890625,0.024009009823203087,-0.11848163604736328,0.008281879127025604
1670388014697770000,0.96977001953125,0.04068678990006447,-0.15263321995735168,0.03399709612131119
1670388014707700700,0.97970068359375,0.0425557866692543,-0.11941507458686829,0.028974022716283798
1670388014717632800,0.9896328125,0.018139394000172615,-0.07172132283449173,-0.002278174739331007
1670388014727563800,0.999563720703125,0.007447781041264534,-0.05657218396663666,-0.0390724278986454
1670388014737495800,1.009495849609375,0.004377689212560654,-0.043448660522699356,-0.060810212045907974
1670388014747426800,1.0194267578125,0.01508719939738512,-0.07037387788295746,-0.07128718495368958
1670388014757358800,1.02935888671875,0.030713297426700592,-0.08445907384157181,-0.07138971239328384
1670388014767289900,1.039289794921875,0.035233721137046814,-0.07802147418260574,-0.08813516050577164
1670388014777221600,1.0492216796875,0.03427471965551376,-0.08161434531211853,-0.10278227925300598
1670388014787152600,1.059152587890625,0.025001222267746925,-0.06947731971740723,-0.1099981814622879
1670388014797085000,1.0690849609375,0.01708470843732357,-0.08631569147109985,-0.12627649307250977
1670388014807016000,1.079015869140625,0.01890730671584606,-0.11775047332048416,-0.14194276928901672
1670388014816947700,1.08894775390625,0.020726246759295464,-0.1663864552974701,-0.15818938612937927
1670388014826878700,1.098878662109375,0.020108409225940704,-0.20843589305877686,-0.16817669570446014
1670388014836810800,1.108810791015625,0.021670352667570114,-0.2386699616909027,-0.1366797536611557
1670388014846741800,1.11874169921875,-0.0029308581724762917,-0.18236218392848969,-0.11283742636442184
1670388014856673800,1.128673828125,-0.02058282308280468,-0.17708700895309448,-0.09374894946813583
1670388014866604800,1.138604736328125,-0.030224207788705826,-0.19057895243167877,-0.06840535998344421
1670388014876536800,1.148536865234375,-0.03682538494467735,-0.1987479329109192,-0.04403024539351463
1670388014886467600,1.158467529296875,-0.03975332900881767,-0.20026132464408875,-0.02653886377811432
1670388014896399600,1.168399658203125,-0.03130631521344185,-0.21802033483982086,-0.028257401660084724
1670388014906331000,1.178330810546875,-0.029764965176582336,-0.2442982941865921,-0.02980135940015316
1670388014916263000,1.188262939453125,-0.03591420501470566,-0.2710910439491272,-0.035058703273534775
1670388014926194700,1.198194580078125,-0.04575075954198837,-0.3318116068840027,-0.04440005123615265
1670388014936125700,1.208125732421875,-0.0566132590174675,-0.38575446605682373,-0.06579402089118958
1670388014946057700,1.2180576171875,-0.06571066379547119,-0.4344702363014221,-0.09823591262102127
1670388014955989000,1.227989013671875,-0.07533080130815506,-0.48588255047798157,-0.1301581710577011
1670388014965920800,1.237920654296875,-0.07470275461673737,-0.5307598114013672,-0.1577598750591278
1670388014975851800,1.247851806640625,-0.07276663929224014,-0.5831748247146606,-0.17768430709838867
1670388014985783800,1.25778369140625,-0.08111259341239929,-0.6550579071044922,-0.18879945576190948
1670388014995714800,1.26771484375,-0.09624600410461426,-0.7449449300765991,-0.19266290962696075
1670388015005646600,1.277646484375,-0.11051657050848007,-0.8455975651741028,-0.1998395174741745
1670388015015577900,1.287577880859375,-0.12872779369354248,-0.9264700412750244,-0.21817219257354736
1670388015025510000,1.297510009765625,-0.14269816875457764,-0.9960998296737671,-0.23365531861782074
1670388015035440600,1.307440673828125,-0.14447103440761566,-1.0635550022125244,-0.24595218896865845
1670388015045372700,1.31737255859375,-0.1346103399991989,-1.130333423614502,-0.24682259559631348
1670388015055304000,1.327303955078125,-0.13488784432411194,-1.1865580081939697,-0.2500234544277191
1670388015065236000,1.337236083984375,-0.14553488790988922,-1.2353843450546265,-0.2677309513092041
1670388015075166700,1.347166748046875,-0.1692921370267868,-1.2796344757080078,-0.30213314294815063
1670388015085098800,1.3570986328125,-0.19944581389427185,-1.303817868232727,-0.35260823369026184
1670388015095029800,1.36702978515625,-0.23531006276607513,-1.3338377475738525,-0.38770362734794617
1670388015104961800,1.3769619140625,-0.3194113075733185,-1.3896199464797974,-0.3966180980205536
1670388015114893600,1.3868935546875,-0.39878416061401367,-1.4653743505477905,-0.4128679037094116
1670388015124824800,1.396824951171875,-0.509003221988678,-1.5931223630905151,-0.412788450717926
1670388015134756900,1.4067568359375,-0.5643298625946045,-1.7425211668014526,-0.39480891823768616
1670388015144687900,1.41668798828125,-0.5827512145042419,-1.8979315757751465,-0.4030776917934418
1670388015154619600,1.42661962890625,-0.5748916864395142,-2.0329134464263916,-0.4271838366985321
1670388015164550700,1.436550537109375,-0.5568835735321045,-2.139587640762329,-0.4560389816761017
1670388015174483000,1.44648291015625,-0.5322890281677246,-2.239265203475952,-0.47239747643470764
1670388015184413400,1.456413330078125,-0.5261818766593933,-2.3389956951141357,-0.43422064185142517
1670388015194345500,1.466345458984375,-0.5267754793167114,-2.418121337890625,-0.3632127642631531
1670388015204276500,1.4762763671875,-0.5400590896606445,-2.4590842723846436,-0.27593618631362915
1670388015214208500,1.48620849609375,-0.5749661922454834,-2.289367437362671,-0.18905667960643768
1670388015224139500,1.496139404296875,-0.6553038358688354,-2.030118942260742,-0.03534116968512535
1670388015234071600,1.506071533203125,-0.6821922063827515,-1.9364312887191772,0.15897983312606812
1670388015244002600,1.51600244140625,-0.6332248449325562,-2.009108781814575,0.382782906293869
1670388015253934600,1.5259345703125,-0.5537207126617432,-2.276123285293579,0.5333417654037476
1670388015263865300,1.535865234375,-0.512270987033844,-2.5855069160461426,0.6062474250793457
1670388015273797600,1.545797607421875,-0.5353845953941345,-2.7430694103240967,0.6055387258529663
1670388015283728600,1.555728759765625,-0.573882520198822,-2.7456629276275635,0.5662973523139954
1670388015293660700,1.56566064453125,-0.5373308658599854,-2.6461308002471924,0.5080114006996155
1670388015303591400,1.57559130859375,-0.43485283851623535,-2.50994873046875,0.4274744987487793
1670388015313523500,1.5855234375,-0.3260011672973633,-2.237879753112793,0.274921178817749
1670388015323455500,1.59545556640625,-0.24765834212303162,-1.9461719989776611,0.06404820829629898
1670388015333386500,1.605386474609375,-0.17185625433921814,-1.70762300491333,-0.14940841495990753
1670388015343318500,1.615318603515625,-0.08120308816432953,-1.498205542564392,-0.3284563720226288
1670388015353249500,1.62524951171875,0.011070111766457558,-1.3764265775680542,-0.47110965847969055
1670388015363181600,1.635181640625,0.0661785900592804,-1.311906337738037,-0.5530511736869812
1670388015373112300,1.6451123046875,0.08516613394021988,-1.2435799837112427,-0.5853444337844849
1670388015383044600,1.655044677734375,0.08046501874923706,-1.1693795919418335,-0.5659288763999939
1670388015392975600,1.6649755859375,0.061662837862968445,-1.0581923723220825,-0.48578396439552307
1670388015402907600,1.67490771484375,0.02962382137775421,-0.9371722936630249,-0.36895638704299927
1670388015412838400,1.68483837890625,-0.002465138677507639,-0.8762580752372742,-0.21489332616329193
1670388015422770400,1.6947705078125,-0.026600467041134834,-0.881363570690155,-0.08272723108530045
1670388015432701700,1.70470166015625,-0.019249608740210533,-0.8934585452079773,-0.025327587500214577
1670388015442633700,1.7146337890625,0.041052691638469696,-1.0578787326812744,-0.0358562096953392
1670388015452564500,1.724564453125,0.16471418738365173,-1.2007030248641968,-0.1162024438381195
1670388015462496500,1.73449658203125,0.3024754822254181,-1.4587998390197754,-0.2226785272359848
1670388015472427500,1.744427490234375,0.42583683133125305,-1.7026252746582031,-0.3705103099346161
1670388015482359600,1.754359619140625,0.5383219718933105,-1.9392027854919434,-0.5012436509132385
1670388015492290600,1.76429052734375,0.6213558912277222,-2.1761903762817383,-0.5868381857872009
1670388015502222600,1.77422265625,0.659687340259552,-2.455247640609741,-0.6122813820838928
1670388015512153600,1.784153564453125,0.6332833766937256,-2.6701085567474365,-0.5570279359817505
1670388015522085400,1.79408544921875,0.50932377576828,-2.784409523010254,-0.5091643333435059
1670388015532016600,1.8040166015625,0.36817681789398193,-2.711552381515503,-0.40666937828063965
1670388015541948700,1.81394873046875,0.24551191926002502,-2.351811170578003,-0.2587851583957672
1670388015551880700,1.823880615234375,0.13430123031139374,-1.7924411296844482,-0.0654580295085907
1670388015561811500,1.8338115234375,0.1114749163389206,-1.1755303144454956,0.18872672319412231
1670388015571743500,1.843743408203125,0.1173972561955452,-0.6020102500915527,0.3697335422039032
1670388015581674500,1.853674560546875,0.05869048833847046,-0.20607346296310425,0.3559287190437317
1670388015591606500,1.8636064453125,-0.0050687831826508045,-0.018545109778642654,0.23253540694713593
1670388015601537500,1.87353759765625,-0.01679115928709507,-0.04936276003718376,0.0845981314778328
1670388015611469600,1.883469482421875,0.050747405737638474,-0.2395974099636078,-0.03912167623639107
1670388015621400600,1.893400634765625,0.15714237093925476,-0.42480480670928955,-0.16335375607013702
1670388015631332600,1.90333251953125,0.2523655593395233,-0.502471387386322,-0.2905340790748596
1670388015641263400,1.913263427734375,0.3495166599750519,-0.5060779452323914,-0.3899291157722473
1670388015651195600,1.923195556640625,0.39070406556129456,-0.47325390577316284,-0.4407816529273987
1670388015661126700,1.933126708984375,0.32352179288864136,-0.46664491295814514,-0.46448811888694763
1670388015671058400,1.943058349609375,0.2407752424478531,-0.500540018081665,-0.41167816519737244
1670388015680989400,1.952989501953125,0.18894021213054657,-0.5704689025878906,-0.28707531094551086
1670388015690921500,1.96292138671875,0.14371974766254425,-0.6337466239929199,-0.12266877293586731
1670388015700852700,1.972852783203125,0.08044889569282532,-0.6907378435134888,0.041173480451107025
1670388015710784500,1.982784423828125,0.018216673284769058,-0.7088127136230469,0.20443511009216309
1670388015720715500,1.992715576171875,-0.05113563686609268,-0.6817998290061951,0.3335629105567932
1670388015730647600,2.0026474609375,-0.10093514621257782,-0.6411264538764954,0.390024334192276
1670388015740578600,2.01257861328125,-0.11903666704893112,-0.5795465111732483,0.3611501455307007
1670388015750510300,2.02251025390625,-0.14115555584430695,-0.5022042989730835,0.25290754437446594
1670388015760442400,2.0324423828125,-0.10729042440652847,-0.55971759557724,0.1165713518857956
1670388015770373600,2.04237353515625,-0.07106105238199234,-0.6979907751083374,-0.02312556281685829
1670388015780305700,2.0523056640625,-0.062477901577949524,-0.8340142965316772,-0.1218254566192627
1670388015790236400,2.062236328125,-0.0629412904381752,-0.8861994743347168,-0.1552438586950302
1670388015800168400,2.07216845703125,0.02700197696685791,-1.0828356742858887,-0.1440306305885315
1670388015810099700,2.082099609375,0.058383338153362274,-1.1827460527420044,-0.13673757016658783
1670388015820031700,2.09203173828125,0.021278364583849907,-1.0402430295944214,-0.10490171611309052
1670388015829962500,2.10196240234375,-0.07575603574514389,-0.6383618712425232,-0.05512776970863342
1670388015839894500,2.11189453125,-0.11582833528518677,-0.31336748600006104,-0.004275744780898094
1670388015849825500,2.121825439453125,-0.10879039764404297,-0.26397567987442017,-0.03180351108312607
1670388015859757300,2.13175732421875,-0.10188078135251999,-0.3343258500099182,-0.12771308422088623
1670388015869688600,2.1416884765625,-0.1001310795545578,-0.4359251856803894,-0.19993269443511963
1670388015879620600,2.15162060546875,-0.10829104483127594,-0.5476688742637634,-0.22516247630119324
1670388015889551600,2.161551513671875,-0.1093113049864769,-0.8300901651382446,-0.19499684870243073
1670388015899483400,2.1714833984375,-0.209039568901062,-0.9931485652923584,-0.2862629294395447
1670388015909414700,2.18141455078125,-0.2738036513328552,-1.0507445335388184,-0.26254430413246155
1670388015919346700,2.1913466796875,-0.19986851513385773,-1.0359362363815308,-0.08885286003351212
1670388015929277400,2.20127734375,-0.09020566940307617,-0.7051849365234375,0.10438504070043564
1670388015939209500,2.21120947265625,-0.03980351611971855,-0.3315177261829376,0.15981106460094452
1670388015949140500,2.221140380859375,-0.07247944176197052,-0.05111375078558922,0.018668044358491898
1670388015959072500,2.231072509765625,-0.1050504818558693,0.12697619199752808,-0.2062472403049469
1670388015969004500,2.241004638671875,-0.1304575651884079,-0.006058282218873501,-0.41623297333717346
1670388015978935600,2.250935546875,-0.1711147278547287,-0.4558001160621643,-0.5128034949302673
1670388015988867600,2.26086767578125,-0.17601653933525085,-0.909042477607727,-0.46354323625564575
1670388015998798600,2.270798583984375,-0.23570774495601654,-1.1182364225387573,-0.2924797534942627
1670388016008730600,2.280730712890625,-0.3698572814464569,-0.8863983750343323,-0.11025775223970413
1670388016018661400,2.290661376953125,-0.4609013497829437,-0.5610426664352417,0.05114021897315979
1670388016028593700,2.30059375,-0.48635318875312805,-0.327372670173645,0.15877266228199005
1670388016038524700,2.310524658203125,-0.5187387466430664,-0.23201684653759003,0.14534248411655426
1670388016048456400,2.32045654296875,-0.5249518752098083,-0.31085118651390076,0.11573051661252975
1670388016058387500,2.330387451171875,-0.4770195782184601,-0.5174905061721802,0.10256939381361008
1670388016068319500,2.340319580078125,-0.43464362621307373,-0.7437050342559814,0.09939676523208618
1670388016078250800,2.350250732421875,-0.4436384439468384,-0.9173293709754944,0.07872261106967926
1670388016088182500,2.3601826171875,-0.48065584897994995,-0.9850199818611145,0.08368806540966034
1670388016098113500,2.370113525390625,-0.45494210720062256,-0.935782790184021,0.12695689499378204
1670388016108045600,2.380045654296875,-0.42680874466896057,-0.9041561484336853,0.12471958249807358
1670388016117976300,2.389976318359375,-0.18674372136592865,-1.2250310182571411,0.06747107952833176
1670388016127908400,2.399908447265625,0.08875204622745514,-1.6092896461486816,-0.004314427264034748
1670388016137839600,2.409839599609375,0.1240580677986145,-1.475110650062561,-0.0023252791725099087
1670388016147771600,2.419771728515625,0.01723521389067173,-0.9675249457359314,0.04123151674866676
1670388016157702400,2.429702392578125,-0.10682138800621033,-0.7357832193374634,-0.02270558848977089
1670388016167634400,2.439634521484375,-0.07924754917621613,-1.1054028272628784,-0.1401272863149643
1670388016177565700,2.449565673828125,-0.13423357903957367,-1.477286458015442,-0.15307791531085968
1670388016187498000,2.459498046875,-0.30471476912498474,-1.7002880573272705,-0.05626881495118141
1670388016197429000,2.469428955078125,-0.4479213058948517,-1.6084924936294556,0.07989819347858429
1670388016207361000,2.479361083984375,-0.5100496411323547,-1.6735018491744995,0.27204474806785583
1670388016217293000,2.48929296875,-0.5589473247528076,-1.7471914291381836,0.48654067516326904
1670388016227224000,2.49922412109375,-0.5961551666259766,-1.688215732574463,0.6430184841156006
1670388016237156000,2.509156005859375,-0.6435424089431763,-1.5659725666046143,0.7067771553993225
1670388016247087000,2.519087158203125,-0.7256996035575867,-1.398754596710205,0.6843221783638
1670388016257019100,2.52901904296875,-0.7984004616737366,-1.3977597951889038,0.6625804305076599
1670388016266950100,2.5389501953125,-0.907228946685791,-1.3785557746887207,0.6432251334190369
1670388016276882000,2.5488818359375,-0.9555246829986572,-1.4250081777572632,0.6014688611030579
1670388016286813000,2.55881298828125,-0.8797628283500671,-1.6178196668624878,0.5207146406173706
1670388016296745000,2.568744873046875,-0.7945838570594788,-1.8712347745895386,0.41093236207962036
1670388016306676200,2.57867626953125,-0.6423794031143188,-2.127838134765625,0.31740668416023254
1670388016316608000,2.58860791015625,-0.4194747507572174,-2.3312337398529053,0.25912898778915405
1670388016326539000,2.5985390625,-0.15439356863498688,-2.386888027191162,0.2746805250644684
1670388016336471000,2.608470947265625,0.07968087494373322,-2.341895341873169,0.28533294796943665
1670388016346402000,2.618402099609375,0.17236633598804474,-2.3384432792663574,0.28449273109436035
1670388016356334000,2.628333984375,0.08444845676422119,-2.3754303455352783,0.260552316904068
1670388016366265000,2.63826513671875,-0.0661248043179512,-2.493959903717041,0.24271418154239655
1670388016376197000,2.648197021484375,-0.23784983158111572,-2.4064300060272217,0.22282977402210236
1670388016386128000,2.6581279296875,-0.3637414574623108,-2.200789451599121,0.2765505313873291
1670388016396060000,2.668059814453125,-0.41419076919555664,-1.8032312393188477,0.4015078544616699
1670388016405991200,2.6779912109375,-0.3794309198856354,-1.5664658546447754,0.5043418407440186
1670388016415923200,2.687923095703125,-0.1509508341550827,-1.7394824028015137,0.5263962149620056
1670388016425855000,2.69785498046875,0.3044971227645874,-1.5338077545166016,0.7373571991920471
1670388016435786000,2.707785888671875,0.6592163443565369,-0.5551409721374512,1.0570663213729858
1670388016445718000,2.717718017578125,0.9622390270233154,-0.4657919108867645,1.03830885887146
1670388016455649000,2.72764892578125,1.055574893951416,-0.9630054831504822,0.8674405217170715
1670388016465581000,2.7375810546875,0.9957137107849121,-1.455564022064209,0.6623057723045349
1670388016475512000,2.747511962890625,0.8852984309196472,-1.8509914875030518,0.6247639060020447
1670388016485444000,2.757444091796875,0.8271176815032959,-1.8803526163101196,0.6526024341583252
1670388016495374800,2.767374755859375,0.7260027527809143,-1.6996468305587769,0.7599869966506958
1670388016505307000,2.777306884765625,0.4935692548751831,-1.7547953128814697,0.8046479225158691
1670388016515238100,2.787238037109375,0.1483093500137329,-1.9472914934158325,0.8149121403694153
1670388016525170200,2.797170166015625,-0.26747268438339233,-2.1993517875671387,0.7760611176490784
1670388016535101000,2.807100830078125,-0.6663394570350647,-2.4095773696899414,0.6976748704910278
1670388016545033000,2.817032958984375,-0.956297755241394,-2.6025302410125732,0.6121024489402771
1670388016554964000,2.8269638671875,-1.110478162765503,-2.7101035118103027,0.5325328707695007
1670388016564896000,2.83689599609375,-1.0601806640625,-2.7872488498687744,0.43863916397094727
1670388016574827000,2.846826904296875,-0.7961865067481995,-2.7152976989746094,0.37105125188827515
1670388016584759000,2.856759033203125,-0.43759772181510925,-2.5680298805236816,0.3492508828639984
1670388016594690000,2.86668994140625,-0.13318662345409393,-2.390089511871338,0.29106563329696655
1670388016604622000,2.8766220703125,0.050790946930646896,-2.260192394256592,0.17718060314655304
1670388016614553000,2.886552978515625,0.19713148474693298,-2.473412275314331,-0.06244949996471405
1670388016624485000,2.896485107421875,0.2847478687763214,-2.5190927982330322,-0.3792327642440796
1670388016634416000,2.906416015625,0.3162989318370819,-2.63159441947937,-0.6497230529785156
1670388016644348200,2.91634814453125,0.20972801744937897,-2.7432477474212646,-0.9439136981964111
1670388016654280000,2.926280029296875,-0.08828534185886383,-2.8064329624176025,-1.1469687223434448
1670388016664211000,2.9362109375,-0.41766348481178284,-3.10127592086792,-1.3566527366638184
1670388016674143000,2.94614306640625,-0.640615701675415,-3.3774020671844482,-1.4848930835723877
1670388016684074000,2.956073974609375,-0.6577156186103821,-3.4757511615753174,-1.5370675325393677
1670388016694006000,2.966006103515625,-0.5250133275985718,-3.2950856685638428,-1.4865413904190063
1670388016703937000,2.97593701171875,-0.32939833402633667,-3.1316065788269043,-1.3807270526885986
1670388016713869000,2.985869140625,-0.19433139264583588,-3.0238070487976074,-1.2647984027862549
1670388016723800000,2.995800048828125,-0.22512473165988922,-2.919966697692871,-1.1347192525863647
1670388016733732000,3.005732177734375,-0.392985463142395,-2.934323310852051,-1.0088508129119873
1670388016743663000,3.0156630859375,-0.6059200763702393,-2.948681592941284,-0.9110623002052307
1670388016753595100,3.02559521484375,-0.8008557558059692,-2.9955880641937256,-0.8449437618255615
1670388016763526000,3.03552587890625,-0.9590834975242615,-3.0056650638580322,-0.8179928064346313
1670388016773458000,3.0454580078125,-1.0346806049346924,-3.0264227390289307,-0.7872623205184937
1670388016783389200,3.05538916015625,-1.0174989700317383,-2.889883041381836,-0.7823200225830078
1670388016793321200,3.0653212890625,-0.8647469878196716,-2.820683479309082,-0.7613510489463806
1670388016803252000,3.075251953125,-0.6581738591194153,-2.7258107662200928,-0.7515708804130554
1670388016813184000,3.08518408203125,-0.4067332446575165,-2.6257920265197754,-0.7202457189559937
1670388016823115000,3.095114990234375,-0.1316167265176773,-2.532582998275757,-0.7019779682159424
1670388016833047000,3.105047119140625,0.0958956852555275,-2.457919120788574,-0.6640851497650146
1670388016842978000,3.11497802734375,0.23631004989147186,-2.476039171218872,-0.6556338667869568
1670388016852910000,3.12491015625,0.2200247049331665,-2.5100321769714355,-0.5972205996513367
1670388016862841000,3.134841064453125,0.06069257855415344,-2.485217332839966,-0.5448117256164551
1670388016872772900,3.14477294921875,-0.16556516289710999,-2.3974220752716064,-0.4537022113800049
1670388016882705000,3.154704833984375,-0.41631510853767395,-2.2946598529815674,-0.291297048330307
1670388016892636200,3.16463623046875,-0.661223828792572,-2.1044235229492188,-0.14998628199100494
1670388016902568200,3.174568115234375,-0.8698180317878723,-2.0490736961364746,0.05090074613690376
1670388016912499000,3.1844990234375,-0.9714109301567078,-1.9145275354385376,0.14482159912586212
1670388016922431000,3.194430908203125,-0.8986278176307678,-1.7776557207107544,0.25015443563461304
1670388016932362000,3.204362060546875,-0.711310625076294,-1.5987341403961182,0.2610083520412445
1670388016942294000,3.2142939453125,-0.5222458839416504,-1.4654368162155151,0.30947548151016235
1670388016952225000,3.22422509765625,-0.3401886224746704,-1.5559227466583252,0.1931208372116089
1670388016962157000,3.234156982421875,-0.23541320860385895,-1.6305279731750488,0.0836033970117569
1670388016972088000,3.244088134765625,-0.17308756709098816,-1.6056950092315674,-0.044127192348241806
1670388016982020000,3.25402001953125,-0.16603603959083557,-1.5852890014648438,-0.1576223373413086
1670388016991951000,3.263951171875,-0.26329323649406433,-1.5464155673980713,-0.24803319573402405
1670388017001883100,3.273883056640625,-0.43117812275886536,-1.5634396076202393,-0.3101159930229187
1670388017011814100,3.283814208984375,-0.583930253982544,-1.59982168674469,-0.3494238257408142
1670388017021746000,3.293745849609375,-0.6298599243164062,-1.5907373428344727,-0.3973045349121094
1670388017031677000,3.303677001953125,-0.6115686893463135,-1.5522912740707397,-0.42543870210647583
1670388017041609000,3.31360888671875,-0.5820169448852539,-1.5266090631484985,-0.4445609748363495
1670388017051540200,3.323540283203125,-0.5900198221206665,-1.5180015563964844,-0.458858847618103
1670388017061472000,3.333471923828125,-0.6077538132667542,-1.5190057754516602,-0.45617517828941345
1670388017071403000,3.343403076171875,-0.5587968230247498,-1.5117850303649902,-0.46004557609558105
1670388017081335000,3.3533349609375,-0.49186041951179504,-1.4809051752090454,-0.4670427739620209
1670388017091265800,3.363265869140625,-0.4244181215763092,-1.441017746925354,-0.4710010290145874
1670388017101198000,3.373197998046875,-0.3692834973335266,-1.3522883653640747,-0.47405141592025757
1670388017111130000,3.383130126953125,-0.3233312964439392,-1.2624508142471313,-0.47672146558761597
1670388017121061000,3.39306103515625,-0.3186526596546173,-1.1637609004974365,-0.4510829448699951
1670388017130993200,3.4029931640625,-0.31337323784828186,-1.0726755857467651,-0.42648229002952576
1670388017140924000,3.412923828125,-0.3095177710056305,-0.9771336317062378,-0.39907437562942505
1670388017150856000,3.42285595703125,-0.3377614915370941,-0.9045129418373108,-0.36050835251808167
1670388017160787200,3.432787109375,-0.4102436900138855,-0.9064719676971436,-0.3204384446144104
1670388017170719200,3.44271923828125,-0.435198038816452,-1.1293600797653198,-0.2709524631500244
1670388017180650000,3.45264990234375,-0.3233322203159332,-1.1682534217834473,-0.2739120423793793
1670388017190582000,3.46258203125,-0.1266392320394516,-1.1359134912490845,-0.2095644474029541
1670388017200513000,3.472512939453125,-0.017208345234394073,-1.215523600578308,-0.12372064590454102
1670388017210444800,3.48244482421875,-0.08822351694107056,-1.4587962627410889,-0.04753637686371803
1670388017220376000,3.4923759765625,-0.020940089598298073,-1.240304708480835,0.4260333180427551
1670388017230308000,3.50230810546875,0.17907151579856873,-0.685660719871521,1.000063180923462
1670388017240239000,3.512239013671875,0.40109819173812866,-0.2220078408718109,1.2340091466903687
1670388017250171000,3.5221708984375,0.45807236433029175,-0.11409812420606613,1.3271595239639282
1670388017260102100,3.53210205078125,0.3251079320907593,-0.21301671862602234,1.3885719776153564
1670388017270034200,3.5420341796875,0.12338815629482269,-0.2767280042171478,1.516148328781128
1670388017279965000,3.55196484375,-0.1181216761469841,-0.2009783685207367,1.5954266786575317
1670388017289897000,3.56189697265625,-0.33604696393013,-0.22808738052845,1.6202800273895264
1670388017299828000,3.571827880859375,-0.5753932595252991,-0.4510594606399536,1.6349833011627197
1670388017309760000,3.581760009765625,-0.6968672275543213,-0.6436942219734192,1.6644959449768066
1670388017319691000,3.59169091796875,-0.6324477791786194,-0.74563068151474,1.7532750368118286
1670388017329623000,3.601623046875,-0.4612481892108917,-0.6432600617408752,1.81242036819458
1670388017339555000,3.61155517578125,-0.29439687728881836,-0.5673609972000122,1.7683559656143188
1670388017349486000,3.621486083984375,-0.15745557844638824,-0.6649079322814941,1.6083317995071411
1670388017359417900,3.63141796875,-0.0909804105758667,-0.8407122492790222,1.36475670337677
1670388017369349000,3.64134912109375,0.09936238825321198,-1.221139669418335,1.0718252658843994
1670388017379281200,3.65128125,0.621321976184845,-1.7127685546875,0.840247392654419
1670388017389212200,3.661212158203125,1.1525579690933228,-2.006164789199829,0.7836814522743225
1670388017399144000,3.67114404296875,1.467329502105713,-2.320917844772339,0.8181344866752625
1670388017409075000,3.681074951171875,1.444885015487671,-2.508652925491333,0.8332766890525818
1670388017419007000,3.691007080078125,1.0044583082199097,-2.5751125812530518,0.8534562587738037
1670388017428938200,3.700938232421875,0.5013543367385864,-2.6611361503601074,0.8688533306121826
1670388017438870000,3.7108701171875,-0.0034494504798203707,-2.4845449924468994,0.9328743815422058
1670388017448801000,3.720801025390625,-0.4429524838924408,-2.367506742477417,1.0154764652252197
1670388017458733000,3.730733154296875,-0.8479226231575012,-2.4005608558654785,1.055418848991394
1670388017468663800,3.740663818359375,-1.2005678415298462,-2.5123355388641357,1.030842900276184
1670388017478596000,3.75059619140625,-1.398521900177002,-2.50946307182312,0.9358556270599365
1670388017488527000,3.760527099609375,-1.4753162860870361,-2.545470714569092,0.7647832632064819
1670388017498459100,3.770459228515625,-1.5023367404937744,-2.6303231716156006,0.5443912148475647
1670388017508390000,3.780389892578125,-1.4828312397003174,-2.663902997970581,0.33393916487693787
1670388017518322000,3.790322021484375,-1.4277527332305908,-2.7415363788604736,0.23802970349788666
1670388017528253200,3.800253173828125,-1.3515743017196655,-2.8185787200927734,0.3092232942581177
1670388017538185200,3.810185302734375,-1.2640259265899658,-2.8542404174804688,0.5501880049705505
1670388017548116000,3.820115966796875,-1.1693596839904785,-2.9277546405792236,0.8892572522163391
1670388017558048000,3.830048095703125,-1.0754406452178955,-2.99045729637146,1.2821874618530273
1670388017567980000,3.83997998046875,-0.9909645318984985,-3.0554425716400146,1.6625707149505615
1670388017577911000,3.8499111328125,-0.9283789396286011,-3.1555023193359375,1.927343487739563
1670388017587842800,3.8598427734375,-0.8665438890457153,-3.2970194816589355,2.090603828430176
1670388017597774000,3.869774169921875,-0.7872578501701355,-3.264333486557007,2.1651289463043213
1670388017607706000,3.8797060546875,-0.684994637966156,-3.111187219619751,2.169086217880249
1670388017617636900,3.889636962890625,-0.5786042809486389,-2.9495420455932617,2.0955581665039062
1670388017627569000,3.89956884765625,-0.4975423514842987,-2.8094544410705566,1.928580641746521
1670388017637500200,3.909500244140625,-0.41839882731437683,-2.626605749130249,1.7004132270812988
1670388017647432200,3.91943212890625,-0.2954193651676178,-2.391209125518799,1.4356963634490967
1670388017657363000,3.929363037109375,-0.1860494613647461,-2.2263998985290527,1.1410279273986816
1670388017667295000,3.939294921875,-0.13823305070400238,-2.1019973754882812,0.8559633493423462
1670388017677226000,3.94922607421875,-0.1416991502046585,-2.045229434967041,0.6071165204048157
1670388017687156000,3.959156005859375,-0.17549271881580353,-2.0738606452941895,0.39817631244659424
1670388017697088000,3.969087890625,-0.21414051949977875,-2.09875226020813,0.23433037102222443
1670388017707020000,3.97902001953125,-0.21128873527050018,-2.1095004081726074,0.1292479783296585
1670388017716951000,3.988950927734375,-0.13213053345680237,-2.124392509460449,0.08637481182813644
1670388017726882800,3.9988828125,0.010611187666654587,-2.1547813415527344,0.08348751813173294
1670388017736814000,4.00881396484375,0.14832058548927307,-2.165738105773926,0.09741371870040894
1670388017746746000,4.01874609375,0.25374147295951843,-2.166010856628418,0.11064411699771881
1670388017756677000,4.028677001953125,0.35245898365974426,-2.244023323059082,0.11626099050045013
1670388017766609000,4.03860888671875,0.43695980310440063,-2.31555438041687,0.1271146684885025
1670388017776540200,4.0485400390625,0.4878501296043396,-2.416895866394043,0.14645375311374664
1670388017786472200,4.05847216796875,0.5144012570381165,-2.518585443496704,0.18131086230278015
1670388017796403000,4.06840283203125,0.5383198857307434,-2.600834608078003,0.22840113937854767
1670388017806335000,4.0783349609375,0.5581437349319458,-2.6925039291381836,0.29494115710258484
1670388017816266000,4.088265869140625,0.5422263145446777,-2.7730348110198975,0.365947425365448
1670388017826198000,4.098197998046875,0.4620528519153595,-2.7712388038635254,0.43962588906288147
1670388017836129000,4.10812890625,0.3173374831676483,-2.7319486141204834,0.5120103359222412
1670388017846061000,4.11806103515625,0.1963939368724823,-2.7074804306030273,0.5436961054801941
1670388017855992000,4.127991943359375,0.12651020288467407,-2.6389262676239014,0.5399006009101868
1670388017865924000,4.137924072265625,0.11244456470012665,-2.533792018890381,0.5047404766082764
1670388017875854800,4.147854736328125,0.11160087585449219,-2.4092743396759033,0.44250112771987915
1670388017885787100,4.157787109375,0.11735785752534866,-2.3113973140716553,0.3677230477333069
1670388017895718100,4.16771826171875,0.12654362618923187,-2.2375779151916504,0.3062032163143158
1670388017905650200,4.177650146484375,0.1598736196756363,-2.1939685344696045,0.2568337023258209
1670388017915581000,4.187580810546875,0.2535836100578308,-2.1314101219177246,0.2163986712694168
1670388017925513000,4.197512939453125,0.3933238387107849,-2.083251714706421,0.18452034890651703
1670388017935444200,4.2074443359375,0.5492072105407715,-2.0245323181152344,0.15076452493667603
1670388017945376000,4.2173759765625,0.675417959690094,-2.014638900756836,0.10239316523075104
1670388017955308000,4.22730810546875,0.7648559808731079,-1.972433090209961,0.04017586261034012
1670388017965239000,4.237239013671875,0.8318755626678467,-1.853764295578003,-0.03388151898980141
1670388017975171000,4.247171142578125,0.8697007298469543,-1.7296807765960693,-0.09454033523797989
1670388017985101800,4.257101806640625,0.8853287100791931,-1.6578481197357178,-0.15983366966247559
1670388017995033900,4.267033935546875,0.8755160570144653,-1.6286489963531494,-0.23903316259384155
1670388018004965000,4.276965087890625,0.8670715689659119,-1.5819288492202759,-0.3158668875694275
1670388018014897200,4.286897216796875,0.8612765073776245,-1.5398367643356323,-0.37441274523735046
1670388018024828000,4.296827880859375,0.849295973777771,-1.5219191312789917,-0.43331676721572876
1670388018034760000,4.306760009765625,0.8315483927726746,-1.483864426612854,-0.4713722765445709
1670388018044691200,4.316691162109375,0.8004567623138428,-1.465915322303772,-0.4621794521808624
1670388018054623200,4.326623291015625,0.7523576617240906,-1.390232801437378,-0.3904978036880493
1670388018064554000,4.336553955078125,0.6406869292259216,-1.4000449180603027,-0.29476198554039
1670388018074486000,4.346486083984375,0.5391405820846558,-1.406903862953186,-0.213640496134758
1670388018084417000,4.3564169921875,0.5044835805892944,-1.4620693922042847,-0.1819915920495987
1670388018094349000,4.36634912109375,0.5098642110824585,-1.5382829904556274,-0.19621260464191437
1670388018104280000,4.376280029296875,0.5253661274909973,-1.6634547710418701,-0.2189982831478119
1670388018114212000,4.386212158203125,0.5498070120811462,-1.8014278411865234,-0.20605239272117615
1670388018124144000,4.39614404296875,0.5471506118774414,-1.9331989288330078,-0.14108270406723022
1670388018134075000,4.406074951171875,0.5268439650535583,-2.0086281299591064,-0.01653864234685898
1670388018144007000,4.4160068359375,0.4947606027126312,-1.9595128297805786,0.19735056161880493
1670388018153938200,4.425938232421875,0.44499143958091736,-1.9300172328948975,0.4782283306121826
1670388018163870200,4.4358701171875,0.39962127804756165,-1.8095530271530151,0.7818575501441956
1670388018173801000,4.445801025390625,0.3643312156200409,-1.6881214380264282,1.0545614957809448
1670388018183733000,4.45573291015625,0.3294854760169983,-1.5555132627487183,1.2444783449172974
1670388018193663500,4.46566357421875,0.3593914210796356,-1.3103042840957642,1.3237286806106567
1670388018203595500,4.475595458984375,0.43301787972450256,-1.0623506307601929,1.3124281167984009
1670388018213527600,4.485527587890625,0.5222380757331848,-0.8507505655288696,1.183449625968933
1670388018223458600,4.49545849609375,0.5745617747306824,-0.7909336686134338,0.989722490310669
1670388018233390600,4.505390625,0.5844716429710388,-0.7939220070838928,0.8024798631668091
1670388018243321300,4.5153212890625,0.5996379256248474,-0.7271205186843872,0.6397200226783752
1670388018253253400,4.52525341796875,0.6242710947990417,-0.5988743901252747,0.4880457818508148
1670388018263184600,4.5351845703125,0.6646027565002441,-0.5625860691070557,0.345316082239151
1670388018273116700,4.54511669921875,0.6712521314620972,-0.5548818111419678,0.06604422628879547
1670388018283047400,4.55504736328125,0.5889771580696106,-0.4668317437171936,-0.21640361845493317
1670388018292979500,4.5649794921875,0.41135677695274353,-0.4466255307197571,-0.4380337595939636
1670388018302910500,4.574910400390625,0.1507672369480133,-0.33708953857421875,-0.589658260345459
1670388018312842500,4.584842529296875,-0.12648648023605347,-0.2161727249622345,-0.6700322031974792
1670388018322773500,4.5947734375,-0.3550814688205719,-0.11597929149866104,-0.7348284721374512
1670388018332705500,4.60470556640625,-0.4344348907470703,0.024978894740343094,-0.591148853302002
1670388018342636500,4.614636474609375,-0.40778499841690063,0.03159337863326073,-0.34854644536972046
1670388018352568600,4.624568603515625,-0.37918582558631897,0.04376349225640297,-0.1561325192451477
1670388018362499600,4.63449951171875,-0.43538644909858704,0.012849023565649986,-0.17073895037174225
1670388018372431600,4.644431640625,-0.5892987251281738,-0.06864290684461594,-0.3345462381839752
1670388018382362600,4.654362548828125,-0.7331414222717285,-0.18668556213378906,-0.5962251424789429
1670388018392294700,4.664294677734375,-0.797887921333313,-0.35337868332862854,-0.933558464050293
1670388018402225400,4.674225341796875,-0.8039655089378357,-0.6491808891296387,-1.2647385597229004
1670388018412157400,4.684157470703125,-0.798486053943634,-1.0764830112457275,-1.6323890686035156
1670388018422088700,4.694088623046875,-0.8221582770347595,-1.2789932489395142,-2.0069260597229004
1670388018432020500,4.7040205078125,-0.8473706841468811,-1.3173818588256836,-2.317542791366577
1670388018441952500,4.713952392578125,-0.8335744738578796,-1.2493772506713867,-2.475878953933716
1670388018451883500,4.723883544921875,-0.8129530549049377,-1.1024059057235718,-2.43432879447937
1670388018461815600,4.733815673828125,-0.8219217658042908,-0.8176890015602112,-2.12321400642395
1670388018471746600,4.74374658203125,-0.8019225001335144,-0.5989323854446411,-1.7064893245697021
1670388018481678600,4.7536787109375,-0.7998868823051453,-1.0240041017532349,-1.2483550310134888
1670388018491609600,4.763609619140625,-0.7897796630859375,-2.1380345821380615,-0.5934215188026428
1670388018501541600,4.773541748046875,-0.9391534924507141,-3.61570143699646,0.027145622298121452
1670388018511472400,4.783472412109375,-1.0568256378173828,-5.1306257247924805,0.5779632329940796
1670388018521404400,4.793404296875,-1.1250144243240356,-6.530248165130615,0.9059613943099976
1670388018531335700,4.803335693359375,-1.1183960437774658,-7.306947231292725,1.0855385065078735
1670388018541267700,4.813267822265625,-1.09896981716156,-7.248205661773682,1.0930482149124146
1670388018551198500,4.823198486328125,-1.1080024242401123,-6.029227256774902,0.8693479895591736
1670388018561130500,4.833130615234375,-1.1131175756454468,-4.7683024406433105,0.5492627024650574
1670388018571061500,4.8430615234375,-1.0946000814437866,-4.613803863525391,0.31067487597465515
1670388018580993500,4.85299365234375,-1.061659336090088,-4.7158966064453125,0.0838872417807579
1670388018590924500,4.862924560546875,-0.9778645634651184,-4.459618091583252,-0.14734357595443726
1670388018600856600,4.872856689453125,-0.7933306694030762,-3.7765064239501953,-0.4418657720088959
1670388018610787600,4.88278759765625,-0.5275610685348511,-2.7916600704193115,-0.7820377349853516
1670388018620719400,4.89271923828125,-0.2092573046684265,-1.6829785108566284,-1.0927677154541016
1670388018630650600,4.902650634765625,0.11044052988290787,-0.6967402696609497,-1.323026418685913
1670388018640582700,4.912582763671875,0.42823347449302673,-0.025584422051906586,-1.4115945100784302
1670388018650513700,4.922513671875,0.7093881368637085,0.2011115700006485,-1.3676891326904297
1670388018660445400,4.932445556640625,0.8954310417175293,-0.033312827348709106,-1.2097488641738892
1670388018670377500,4.94237744140625,0.9568421840667725,-0.6196527481079102,-0.9245081543922424
1670388018680308500,4.95230859375,0.9305530190467834,-1.4222030639648438,-0.540673017501831
1670388018690240500,4.962240478515625,0.8166583776473999,-2.363975763320923,-0.10897354036569595
1670388018700171500,4.972171630859375,0.7955965995788574,-3.3904545307159424,0.2634727954864502
1670388018710103600,4.982103515625,0.9870307445526123,-4.186680793762207,0.5988265872001648
1670388018720034600,4.99203466796875,1.2236731052398682,-4.647478103637695,0.8512884378433228
1670388018729966600,5.001966552734375,1.3677592277526855,-4.74679708480835,1.0277771949768066
1670388018739897600,5.011897705078125,1.3745170831680298,-4.5298752784729,1.1616700887680054
1670388018749829600,5.02182958984375,1.3228895664215088,-4.106632709503174,1.2663624286651611
1670388018759760600,5.0317607421875,1.2394047975540161,-3.650500535964966,1.3606797456741333
1670388018769692400,5.0416923828125,1.0623676776885986,-3.3201797008514404,1.4582103490829468
1670388018779623400,5.05162353515625,1.0004109144210815,-3.267604112625122,1.5342485904693604
1670388018789555500,5.061555419921875,1.322418212890625,-3.438293933868408,1.5765931606292725
1670388018799486700,5.07148681640625,1.7589993476867676,-3.463045358657837,1.6223108768463135
1670388018809418500,5.08141845703125,2.076756477355957,-3.361680507659912,1.644005537033081
1670388018819349500,5.091349609375,2.230721950531006,-3.1677122116088867,1.6829371452331543
1670388018829281500,5.101281494140625,2.32930326461792,-2.9934616088867188,1.7712273597717285
1670388018839212500,5.111212646484375,2.39445161819458,-2.923767328262329,1.912009835243225
1670388018849144600,5.12114453125,2.4851090908050537,-3.096254587173462,2.062091112136841
1670388018859075600,5.13107568359375,2.3927266597747803,-3.407600164413452,2.220818281173706
1670388018869007600,5.141007568359375,2.3478472232818604,-3.9099478721618652,2.4466586112976074
1670388018878938400,5.1509384765625,2.536886692047119,-4.482204914093018,2.747419834136963
1670388018888870400,5.160870361328125,2.9641165733337402,-5.053322792053223,2.9719483852386475
1670388018898801700,5.1708017578125,3.3086001873016357,-4.6632795333862305,3.2334675788879395
1670388018908733700,5.180733642578125,3.316615581512451,-3.992856979370117,3.2706427574157715
1670388018918665700,5.190665771484375,3.16444993019104,-3.3051416873931885,3.297293186187744
1670388018928596500,5.200596435546875,2.9165947437286377,-2.6012585163116455,3.2155187129974365
1670388018938528500,5.210528564453125,2.6295933723449707,-2.5403590202331543,3.078345537185669
1670388018948459500,5.22045947265625,2.139047861099243,-2.822935104370117,3.012667655944824
1670388018958391600,5.2303916015625,1.6317920684814453,-3.4231255054473877,2.6752700805664062
1670388018968322600,5.240322509765625,1.221439242362976,-3.8193342685699463,2.2914538383483887
1670388018978254600,5.250254638671875,1.0432932376861572,-3.9219651222229004,1.7668644189834595
1670388018988185600,5.260185546875,0.8095508217811584,-1.9594228267669678,0.587195634841919
1670388018998117400,5.270117431640625,0.9401607513427734,-1.1930731534957886,-1.352820873260498
1670388019008048600,5.280048583984375,0.678011417388916,-0.7665221691131592,-1.987250566482544
1670388019017980700,5.289980712890625,0.22667406499385834,-0.5421042442321777,-2.5796990394592285
1670388019027911400,5.299911376953125,-0.3253169357776642,-0.6205399036407471,-2.7641212940216064
1670388019037843500,5.309843505859375,-0.6905224919319153,-0.8921665549278259,-2.741649627685547
1670388019047774500,5.3197744140625,-0.9639534950256348,-1.2420039176940918,-2.572904586791992
1670388019057706500,5.32970654296875,-1.1841222047805786,-1.5548045635223389,-2.4391074180603027
1670388019067637500,5.339637451171875,-1.298261046409607,-1.6269018650054932,-2.3227429389953613
1670388019077569500,5.349569580078125,-1.2742284536361694,-1.5395766496658325,-2.2480547428131104
1670388019087500500,5.35950048828125,-1.1370580196380615,-1.42996084690094,-2.189819574356079
1670388019097432600,5.3694326171875,-0.9515389800071716,-1.3367429971694946,-2.113260269165039
1670388019107363600,5.379363525390625,-0.7529745101928711,-1.2848718166351318,-2.0238523483276367
1670388019117295600,5.389295654296875,-0.6142221689224243,-1.298807144165039,-1.929317831993103
1670388019127226600,5.3992265625,-0.5597749352455139,-1.3263485431671143,-1.8668227195739746
1670388019137158700,5.40915869140625,-0.5526555776596069,-1.3977185487747192,-1.8454464673995972
1670388019147090400,5.41909033203125,-0.5127968788146973,-1.4829490184783936,-1.854421854019165
1670388019157021400,5.429021484375,-0.4510793387889862,-1.5320857763290405,-1.884623408317566
1670388019166953500,5.438953369140625,-0.3717890679836273,-1.5997204780578613,-1.9349877834320068
1670388019176884700,5.448884765625,-0.2738285958766937,-1.6150150299072266,-1.9866337776184082
1670388019186816500,5.45881640625,-0.14775003492832184,-1.5969947576522827,-2.036989688873291
1670388019196748000,5.468748046875,0.02265842631459236,-1.5620843172073364,-2.096714496612549
1670388019206680000,5.47868017578125,0.22418780624866486,-1.4978328943252563,-2.1419010162353516
1670388019216611000,5.488611083984375,0.4485139548778534,-1.4894628524780273,-2.1866629123687744
1670388019226542800,5.49854296875,0.6866140961647034,-1.5124605894088745,-2.214627504348755
1670388019236474000,5.50847412109375,0.9027494788169861,-1.5457500219345093,-2.1994144916534424
1670388019246406100,5.51840625,1.0650373697280884,-1.64642333984375,-2.1713643074035645
1670388019256337000,5.5283369140625,1.1623810529708862,-1.789183259010315,-2.163506031036377
1670388019266269000,5.53826904296875,1.2122961282730103,-1.963873267173767,-2.139920711517334
1670388019276200000,5.548199951171875,1.1804462671279907,-2.132228374481201,-2.077476739883423
1670388019286132200,5.55813232421875,1.0530246496200562,-2.22883677482605,-1.992332935333252
1670388019296063000,5.56806298828125,0.8224072456359863,-2.3005337715148926,-1.8623616695404053
1670388019305995000,5.5779951171875,0.5222524404525757,-2.3870959281921387,-1.6891275644302368
1670388019315926000,5.587926025390625,0.17336003482341766,-2.438405752182007,-1.4613314867019653
1670388019325858000,5.597858154296875,-0.16417591273784637,-2.470808982849121,-1.1710402965545654
1670388019335789000,5.6077890625,-0.43902939558029175,-2.5291125774383545,-0.8458670973777771
1670388019345721000,5.61772119140625,-0.6689336895942688,-2.576998710632324,-0.5049388408660889
1670388019355652000,5.627652099609375,-0.8348174691200256,-2.6329312324523926,-0.1860266476869583
1670388019365584100,5.637584228515625,-0.9565050005912781,-2.642369031906128,0.10558494925498962
1670388019375516000,5.647515869140625,-0.8430296778678894,-2.3992440700531006,0.24958248436450958
1670388019385447000,5.657447021484375,-0.7049461007118225,-2.402231454849243,0.24388466775417328
1670388019395379000,5.66737890625,-0.556662917137146,-2.193027973175049,0.05298074334859848
1670388019405310000,5.67731005859375,-0.4179167151451111,-2.0687150955200195,-0.2553422152996063
1670388019415242000,5.687241943359375,-0.22568848729133606,-1.9571670293807983,-0.5963085293769836
1670388019425173000,5.697173095703125,0.020271478220820427,-1.9222674369812012,-0.8937442302703857
1670388019435105000,5.70710498046875,0.2736132740974426,-1.8524035215377808,-1.0851259231567383
1670388019445036000,5.7170361328125,0.5119631886482239,-1.7824335098266602,-1.110725998878479
1670388019454968000,5.726968017578125,0.6732482314109802,-1.7338048219680786,-1.0322771072387695
1670388019464899000,5.736899169921875,0.6863299012184143,-1.6381134986877441,-1.0165910720825195
1670388019474831000,5.7468310546875,0.6237643361091614,-1.8067294359207153,-0.8204185366630554
1670388019484761900,5.756761962890625,0.4606665074825287,-1.7286481857299805,-0.6669698357582092
1670388019494694000,5.76669384765625,0.257132351398468,-1.7229121923446655,-0.48099833726882935
1670388019504625200,5.776625244140625,0.05173790454864502,-1.5895788669586182,-0.35169440507888794
1670388019514557200,5.78655712890625,-0.13323277235031128,-1.6719366312026978,-0.19200225174427032
1670388019524488000,5.796488037109375,-0.3213808238506317,-1.561694622039795,0.09898778051137924
1670388019534420000,5.806419921875,-0.5497697591781616,-1.5076494216918945,0.22402410209178925
1670388019544351000,5.81635107421875,-0.7629046440124512,-1.5028667449951172,0.25739219784736633
1670388019554283300,5.826283203125,-0.9244545698165894,-1.4523379802703857,0.23504702746868134
1670388019564214000,5.836214111328125,-1.0069464445114136,-1.3304510116577148,0.14652568101882935
1670388019574146000,5.84614599609375,-0.9488564133644104,-1.1346553564071655,-0.1152743473649025
1670388019584077000,5.8560771484375,-0.766483724117279,-1.2568325996398926,-0.2941862940788269
1670388019594008800,5.8660087890625,-0.5774535536766052,-1.1534887552261353,-0.4170434772968292
1670388019603940000,5.875940185546875,-0.3999277651309967,-1.130719542503357,-0.6579759120941162
1670388019613872000,5.8858720703125,-0.23162901401519775,-1.2281787395477295,-0.8130001425743103
1670388019623804200,5.89580419921875,-0.13046085834503174,-1.205583095550537,-0.8768854141235352
1670388019633735000,5.90573486328125,-0.08148419857025146,-1.1674610376358032,-0.8524019122123718
1670388019643667000,5.9156669921875,-0.056819867342710495,-1.1319680213928223,-0.7393834590911865
1670388019653598000,5.925597900390625,-0.04083428159356117,-1.0716757774353027,-0.580345869064331
1670388019663530000,5.935530029296875,-0.026159731671214104,-1.0065999031066895,-0.4406915307044983
1670388019673461000,5.9454609375,-0.02164316363632679,-0.9787172675132751,-0.30402064323425293
1670388019683393000,5.95539306640625,-0.13355691730976105,-0.9773851633071899,-0.03530288115143776
1670388019693324000,5.965323974609375,-0.16044194996356964,-0.8942025303840637,0.13992804288864136
1670388019703256000,5.975256103515625,-0.17575378715991974,-0.8942819237709045,0.17244763672351837
1670388019713187000,5.98518701171875,-0.19114559888839722,-0.9774105548858643,0.11800657957792282
1670388019723119000,5.995119140625,-0.2085656076669693,-0.8542830348014832,0.045891109853982925
1670388019733050000,6.005050048828125,-0.1627584844827652,-0.8349332213401794,-0.06433933228254318
1670388019742982100,6.014982177734375,-0.08411532640457153,-0.8643933534622192,-0.1605963557958603
1670388019752913000,6.024912841796875,-0.030476130545139313,-0.8563299775123596,-0.18395918607711792
1670388019762845000,6.034844970703125,0.0136750852689147,-0.8348944783210754,-0.13797731697559357
1670388019772776200,6.044776123046875,0.02654186077415943,-0.8185166716575623,-0.06607120484113693
1670388019782708000,6.0547080078125,0.011525626294314861,-0.7560154795646667,-0.012060698121786118
1670388019792639000,6.064638916015625,-0.01901308447122574,-0.6958090662956238,0.005772389005869627
1670388019802571000,6.074571044921875,-0.08149857074022293,-0.6846679449081421,-0.002189130987972021
1670388019812502300,6.084502197265625,-0.18460017442703247,-0.6644577383995056,-0.013370739296078682
1670388019822434000,6.09443408203125,-0.3094627559185028,-0.638859212398529,-0.05246647819876671
1670388019832365000,6.104364990234375,-0.3904176354408264,-0.6539583206176758,-0.09896153211593628
1670388019842297000,6.114297119140625,-0.43974682688713074,-0.6611488461494446,-0.1473626047372818
1670388019852227800,6.124227783203125,-0.4961283206939697,-0.6737034916877747,-0.14801932871341705
1670388019862160000,6.134159912109375,-0.4936465322971344,-0.607932448387146,-0.09445063769817352
1670388019872092000,6.144091796875,-0.40011832118034363,-0.5027217268943787,-0.021425340324640274
1670388019882023200,6.154023193359375,-0.2808361351490021,-0.40601012110710144,-0.028460880741477013
1670388019891955200,6.163955078125,-0.08988708257675171,-0.3852604925632477,-0.09184588491916656
1670388019901886000,6.173885986328125,0.10870829969644547,-0.3514828383922577,-0.1514655351638794
1670388019911818000,6.18381787109375,0.2618056535720825,-0.3366222679615021,-0.16306447982788086
1670388019921749000,6.1937490234375,0.3612523674964905,-0.32550811767578125,-0.11202898621559143
1670388019931681000,6.203680908203125,0.31638291478157043,-0.33969441056251526,-0.04004548117518425
1670388019941612000,6.213612060546875,0.16075417399406433,-0.3648335933685303,0.016117125749588013
1670388019951544000,6.2235439453125,-0.0469234324991703,-0.34091055393218994,0.06514159590005875
1670388019961475000,6.23347509765625,-0.1635264754295349,-0.29165324568748474,0.0961780697107315
1670388019971406800,6.24340673828125,-0.19162455201148987,-0.2548258602619171,0.11114752292633057
1670388019981338000,6.253338134765625,-0.21304994821548462,-0.2223915159702301,0.08314837515354156
1670388019991270100,6.263270263671875,-0.16102825105190277,-0.29863420128822327,0.034733064472675323
1670388020001201200,6.273201171875,-0.10968543589115143,-0.5324459075927734,-0.021534735336899757
1670388020011133000,6.2831328125,-0.09393885731697083,-1.004489779472351,-0.18181756138801575
1670388020021064000,6.29306396484375,-0.03247842565178871,-1.5166484117507935,-0.4508170783519745
1670388020030996000,6.302995849609375,0.1998637616634369,-2.0277481079101562,-0.8090634942054749
1670388020040927000,6.312927001953125,0.49059414863586426,-2.4714837074279785,-1.0286829471588135
1670388020050859000,6.32285888671875,0.639082670211792,-2.5466878414154053,-0.9473045468330383
1670388020060790000,6.3327900390625,0.6736603379249573,-2.2545418739318848,-0.6869016885757446
1670388020070722000,6.34272216796875,0.648853063583374,-1.9288339614868164,-0.3393646478652954
1670388020080653000,6.352653076171875,0.5903899669647217,-1.6348552703857422,-0.012254705652594566
1670388020090585000,6.362585205078125,0.5110795497894287,-1.5946972370147705,0.27344584465026855
1670388020100516000,6.37251611328125,0.4645245671272278,-1.6012954711914062,0.4822443425655365
1670388020110448000,6.3824482421875,0.46318376064300537,-1.5331337451934814,0.5921247601509094
1670388020120380000,6.3923798828125,0.4996586740016937,-1.4614063501358032,0.6298841238021851
1670388020130311000,6.402310791015625,0.4277615547180176,-1.4475619792938232,0.6337487101554871
1670388020140243000,6.412242919921875,0.2906215488910675,-1.5654864311218262,0.5975017547607422
1670388020150174200,6.42217431640625,0.21247415244579315,-1.7602068185806274,0.43710455298423767
1670388020160106000,6.43210595703125,0.35027968883514404,-1.9570540189743042,0.26931822299957275
1670388020170037000,6.442037109375,0.3950352966785431,-1.8251394033432007,0.08108694851398468
1670388020179969000,6.451968994140625,0.31198355555534363,-1.6637345552444458,0.02500050514936447
1670388020189900000,6.461900146484375,0.1558171808719635,-1.3916151523590088,0.052765123546123505
1670388020199831600,6.47183154296875,-0.044892750680446625,-1.3168463706970215,0.1661776900291443
1670388020209762600,6.481762451171875,-0.17965944111347198,-1.2625168561935425,0.29205358028411865
1670388020219694600,6.491694580078125,-0.20481325685977936,-1.3600069284439087,0.4082249104976654
1670388020229625300,6.501625244140625,-0.20985820889472961,-1.450903058052063,0.3608618676662445
1670388020239557600,6.5115576171875,-0.23170092701911926,-1.6328198909759521,0.32348066568374634
1670388020249488600,6.521488525390625,-0.38753458857536316,-2.254197835922241,0.16650943458080292
1670388020259420700,6.531420654296875,-0.5854471325874329,-3.298945665359497,-0.004720370285212994
1670388020269351400,6.541351318359375,-0.6782134175300598,-4.227114677429199,-0.0847780704498291
1670388020279283500,6.551283447265625,-0.7497203350067139,-4.912014484405518,-0.1302531361579895
1670388020289214700,6.561214599609375,-0.6353707909584045,-5.785214900970459,-0.3073524236679077
1670388020299146800,6.571146728515625,-0.5592288970947266,-7.300223350524902,-0.586334228515625
1670388020309077500,6.581077392578125,-0.7200881242752075,-8.53420639038086,-0.6835730671882629
1670388020319009500,6.591009521484375,-0.8944860696792603,-9.879427909851074,-0.6584301590919495
1670388020328940500,6.6009404296875,-1.0327433347702026,-11.64105224609375,-0.8905690908432007
1670388020338872300,6.610872314453125,-1.2405847311019897,-13.406329154968262,-1.11394464969635
1670388020348803600,6.620803466796875,-1.7304896116256714,-14.11545467376709,-0.987972617149353
1670388020358735600,6.630735595703125,-2.341977834701538,-12.514554977416992,-0.17057013511657715
1670388020368667600,6.640667724609375,-2.981130838394165,-6.848289966583252,1.4918912649154663
1670388020378598400,6.650598388671875,-2.889766216278076,-2.580601692199707,2.519402503967285
1670388020388530400,6.660530517578125,-2.071803092956543,-4.011935234069824,1.7737284898757935
1670388020398461700,6.670461669921875,-1.595188021659851,-4.810173988342285,1.094238042831421
1670388020408393700,6.680393798828125,-1.2039794921875,-4.0757317543029785,1.0335134267807007
1670388020418324500,6.690324462890625,-0.19520343840122223,-3.1483845710754395,1.2580796480178833
1670388020428256500,6.700256591796875,-0.03178032487630844,-2.0304782390594482,1.8743960857391357
1670388020438187500,6.7101875,-0.10254397243261337,-1.4325010776519775,1.878640055656433
1670388020448119600,6.72011962890625,0.06427057087421417,-0.17402859032154083,1.4307115077972412
1670388020458050600,6.730050537109375,0.39194005727767944,0.36534276604652405,0.8759579658508301
1670388020467982600,6.739982666015625,0.5435436964035034,0.37869325280189514,0.3647080361843109
1670388020477913600,6.74991357421875,0.7785348892211914,0.19096702337265015,-0.20171062648296356
1670388020487845400,6.759845458984375,1.1155418157577515,0.06979512423276901,-0.6348910331726074
1670388020497776400,6.7697763671875,1.3843053579330444,-0.09314053505659103,-0.9211528301239014
1670388020507708700,6.779708740234375,1.5167847871780396,-0.344478577375412,-1.0788966417312622
1670388020517639700,6.7896396484375,1.5385830402374268,-0.581062376499176,-1.1137810945510864
1670388020527571500,6.799571533203125,1.5388877391815186,-0.8384166359901428,-1.0364893674850464
1670388020537502500,6.80950244140625,1.489325761795044,-1.1066534519195557,-0.8829200863838196
1670388020547434500,6.8194345703125,1.343074917793274,-1.4483060836791992,-0.723547637462616
1670388020557365500,6.829365478515625,1.1260499954223633,-1.9949909448623657,-0.6108091473579407
1670388020567297500,6.839297607421875,0.9940752387046814,-2.6731691360473633,-0.4970814883708954
1670388020577228500,6.849228515625,0.9921492338180542,-3.2976479530334473,-0.31210896372795105
1670388020587160600,6.85916064453125,1.0535577535629272,-3.7637624740600586,-0.06450986117124557
1670388020597091300,6.86909130859375,1.1107736825942993,-4.192750930786133,0.17516452074050903
1670388020607023400,6.8790234375,1.1825405359268188,-4.611208915710449,0.3751849830150604
1670388020616955400,6.888955322265625,1.1840577125549316,-5.289300918579102,0.575060248374939
1670388020626886700,6.89888671875,1.1297136545181274,-6.239380359649658,0.7149385809898376
1670388020636818700,6.908818603515625,1.0282062292099,-7.430604457855225,0.8761748671531677
1670388020646749400,6.91874951171875,0.7960755825042725,-8.638167381286621,1.0244746208190918
1670388020656681500,6.928681396484375,0.32508888840675354,-9.354409217834473,1.1817941665649414
1670388020666612700,6.93861279296875,-0.29659849405288696,-9.516674041748047,1.3085857629776
1670388020676544500,6.94854443359375,-0.7949600219726562,-8.358572006225586,1.2966421842575073
1670388020686475500,6.9584755859375,-0.7672673463821411,-6.144582748413086,1.235040545463562
1670388020696407600,6.968407470703125,-0.7456232905387878,-0.9061196446418762,2.2057137489318848
1670388020706338600,6.978338623046875,0.09642264991998672,-0.42055633664131165,3.125434637069702
1670388020716270300,6.988270263671875,0.9115563631057739,-1.512424111366272,2.71650767326355
1670388020726201600,6.99820166015625,1.291350245475769,-1.3614420890808105,2.241379499435425
1670388020736133600,7.008133544921875,1.2927758693695068,-1.251383662223816,1.5414533615112305
1670388020746064400,7.018064453125,1.1946386098861694,-1.433552622795105,0.6396998167037964
1670388020755996400,7.027996337890625,1.161354899406433,-1.7872803211212158,-0.05838153511285782
1670388020765927700,7.037927734375,1.0730514526367188,-2.0232367515563965,-0.4297502934932709
1670388020775859700,7.047859619140625,0.9778844118118286,-2.219663619995117,-0.49253085255622864
1670388020785790500,7.05779052734375,1.048452377319336,-2.145350217819214,-0.5867114663124084
1670388020795722500,7.067722412109375,1.0588507652282715,-2.080860137939453,-0.660418689250946
1670388020805653500,7.077653564453125,0.9935756921768188,-2.1956121921539307,-0.6302339434623718
1670388020815585500,7.08758544921875,0.894041121006012,-2.3787479400634766,-0.45632389187812805
1670388020825516500,7.0975166015625,0.7744007706642151,-2.558643102645874,-0.21625326573848724
1670388020835448600,7.107448486328125,0.6611706018447876,-2.678636074066162,0.03500080853700638
1670388020845379600,7.117379638671875,0.5383932590484619,-2.76188588142395,0.27440568804740906
1670388020855311600,7.1273115234375,0.43768927454948425,-2.844912052154541,0.4798765778541565
1670388020865243400,7.137243408203125,0.39440470933914185,-2.8767220973968506,0.6390448212623596
1670388020875174400,7.14717431640625,0.4333404004573822,-2.8518221378326416,0.7432734966278076
1670388020885106700,7.157106689453125,0.5722358822822571,-2.791098117828369,0.7952766418457031
1670388020895037700,7.16703759765625,0.7831097841262817,-2.6629371643066406,0.7903178334236145
1670388020904969500,7.176969482421875,1.0102542638778687,-2.4706175327301025,0.7474179267883301
1670388020914900500,7.186900390625,1.209937334060669,-2.232637882232666,0.7012432813644409
1670388020924832500,7.19683251953125,1.361146092414856,-2.032050371170044,0.6702257394790649
1670388020934763500,7.206763427734375,1.478903889656067,-1.8602626323699951,0.6543596982955933
1670388020944695600,7.216695556640625,1.5415098667144775,-1.7207554578781128,0.6490676999092102
1670388020954626600,7.22662646484375,1.5585602521896362,-1.6107220649719238,0.6722654104232788
1670388020964558600,7.23655859375,1.5250787734985352,-1.5793116092681885,0.7067201733589172
1670388020974489300,7.2464892578125,1.4710909128189087,-1.580081582069397,0.7377630472183228
1670388020984421400,7.25642138671875,1.3958326578140259,-1.5665689706802368,0.7481904625892639
1670388020994352600,7.2663525390625,1.309205174446106,-1.5561128854751587,0.7264825105667114
1670388021004284700,7.27628466796875,1.2347471714019775,-1.5368725061416626,0.6744686365127563
1670388021014215400,7.28621533203125,1.1948561668395996,-1.5166956186294556,0.5784201622009277
1670388021024147500,7.2961474609375,1.1779850721359253,-1.5243644714355469,0.42042970657348633
1670388021034078700,7.30607861328125,1.1868531703948975,-1.5263376235961914,0.1956264227628708
1670388021044010800,7.3160107421875,1.2211607694625854,-1.5326251983642578,-0.06745902448892593
1670388021053941500,7.32594140625,1.2548394203186035,-1.5232961177825928,-0.3184230625629425
1670388021063873500,7.33587353515625,1.271876335144043,-1.4910063743591309,-0.5359376668930054
1670388021073804500,7.345804443359375,1.2496205568313599,-1.4388039112091064,-0.7227964997291565
1670388021083736300,7.355736328125,1.21314537525177,-1.350212812423706,-0.8970750570297241
1670388021093667600,7.36566748046875,1.161315679550171,-1.2200098037719727,-1.0473250150680542
1670388021103599600,7.375599609375,1.1219761371612549,-1.112289547920227,-1.1657010316848755
1670388021113530600,7.385530517578125,1.0659645795822144,-1.0731420516967773,-1.2514673471450806
1670388021123462400,7.39546240234375,0.9989374876022339,-1.0837503671646118,-1.3201327323913574
1670388021133394400,7.40539453125,0.9349337220191956,-1.0584367513656616,-1.4055818319320679
1670388021143325400,7.415325439453125,0.8763837218284607,-0.9921566843986511,-1.5149991512298584
1670388021153257700,7.4252578125,0.8132824897766113,-0.9057046175003052,-1.6368627548217773
1670388021163188500,7.4351884765625,0.7483591437339783,-0.7945626974105835,-1.7312049865722656
1670388021173120500,7.44512060546875,0.6955620050430298,-0.7012990713119507,-1.7890150547027588
1670388021183051500,7.455051513671875,0.6609320640563965,-0.609599769115448,-1.8144499063491821
1670388021192983800,7.46498388671875,0.65626060962677,-0.5427480340003967,-1.800915241241455
1670388021202914800,7.474914794921875,0.6722078919410706,-0.4633256793022156,-1.7462712526321411
1670388021212846800,7.484846923828125,0.6766346096992493,-0.41978541016578674,-1.6495593786239624
1670388021222777900,7.49477783203125,0.6534461379051208,-0.399029016494751,-1.5151680707931519
1670388021232710000,7.5047099609375,0.5948994755744934,-0.3713529109954834,-1.3615769147872925
1670388021242640600,7.514640625,0.4943164587020874,-0.3762105405330658,-1.2118473052978516
1670388021252572700,7.52457275390625,0.3551662862300873,-0.3512047827243805,-1.0705852508544922
1670388021262504000,7.53450390625,0.20853598415851593,-0.29901808500289917,-0.9453717470169067
1670388021272436000,7.54443603515625,0.0847298875451088,-0.24917490780353546,-0.8558341860771179
1670388021282366700,7.55436669921875,-0.009327130392193794,-0.22587978839874268,-0.7883647084236145
1670388021292298800,7.564298828125,-0.07826252281665802,-0.2315203696489334,-0.7211241126060486
1670388021302229800,7.574229736328125,-0.09177415072917938,-0.25950857996940613,-0.6619465947151184
1670388021312161800,7.584161865234375,-0.03807869926095009,-0.28030040860176086,-0.6125507950782776
1670388021322092800,7.5940927734375,0.06291614472866058,-0.27184656262397766,-0.5603002309799194
1670388021332024800,7.60402490234375,0.18242336809635162,-0.24260053038597107,-0.49971145391464233
1670388021341955800,7.613955810546875,0.28712016344070435,-0.21067821979522705,-0.43047192692756653
1670388021351887600,7.6238876953125,0.3534752130508423,-0.17568828165531158,-0.3422866761684418
1670388021361819000,7.63381884765625,0.37758854031562805,-0.15373849868774414,-0.23865482211112976
1670388021371751000,7.6437509765625,0.36882540583610535,-0.1293809711933136,-0.10475215315818787
1670388021381681700,7.653681640625,0.32199984788894653,-0.10511473566293716,0.04224751889705658
1670388021391613700,7.66361376953125,0.2577846348285675,-0.08794160932302475,0.18688805401325226
1670388021401545700,7.673545654296875,0.19313620030879974,-0.09933629631996155,0.3356032371520996
1670388021411476700,7.683476806640625,0.15535713732242584,-0.10115843266248703,0.46891334652900696
1670388021421408800,7.69340869140625,0.15137115120887756,-0.07892455905675888,0.5825914144515991
1670388021431339800,7.70333984375,0.18126007914543152,-0.06390060484409332,0.6643691062927246
1670388021441271800,7.713271728515625,0.2483881264925003,-0.06124795973300934,0.719590425491333
1670388021451202800,7.723202880859375,0.34323394298553467,-0.05795922502875328,0.7376872301101685
1670388021461134600,7.733134521484375,0.4437066912651062,-0.05136145278811455,0.7110618948936462
1670388021471065900,7.74306591796875,0.512463390827179,-0.03944940119981766,0.658404529094696
1670388021480998000,7.752997802734375,0.5148493647575378,0.0005580934230238199,0.6035195589065552
1670388021490929000,7.762928955078125,0.466839462518692,0.045737020671367645,0.5599366426467896
1670388021500860700,7.772860595703125,0.3881000280380249,0.08372252434492111,0.5385144352912903
1670388021510791700,7.782791748046875,0.31334778666496277,0.10912428796291351,0.5443768501281738
1670388021520723700,7.7927236328125,0.25904637575149536,0.11578008532524109,0.5617238283157349
1670388021530654700,7.80265478515625,0.21549542248249054,0.09004489332437515,0.5588804483413696
1670388021540586800,7.812586669921875,0.15018810331821442,0.04028012603521347,0.4479912221431732
1670388021550517800,7.822517822265625,0.07946252822875977,0.025310494005680084,0.2776535749435425
1670388021560449800,7.83244970703125,0.0002936434466391802,0.012460118159651756,0.08438093215227127
1670388021570380800,7.842380859375,-0.071942999958992,0.009466192685067654,-0.09888184070587158
1670388021580312800,7.852312744140625,-0.09197592735290527,0.019205087795853615,-0.2103089839220047
1670388021590243800,7.862243896484375,-0.06481381505727768,0.01677442155778408,-0.250658243894577
1670388021600175900,7.87217578125,-0.06573371589183807,0.012288473546504974,-0.22758007049560547
1670388021610106600,7.882106689453125,-0.09479013085365295,0.010289505124092102,-0.1884896606206894
1670388021620038700,7.89203857421875,-0.12232964485883713,0.018380628898739815,-0.11568908393383026
1670388021629970000,7.901969970703125,-0.13864682614803314,0.024410026147961617,-0.041876647621393204
1670388021639902000,7.91190185546875,-0.11859088391065598,0.022393617779016495,0.03127473592758179
1670388021649832700,7.921832763671875,-0.07037221640348434,0.004705168306827545,0.08831166476011276
1670388021659764700,7.9317646484375,-0.015691129490733147,0.0011176245752722025,0.1374664306640625
1670388021669696800,7.94169677734375,0.03859283775091171,0.003153995843604207,0.17021417617797852
1670388021679627800,7.951627685546875,0.07315744459629059,0.026185721158981323,0.19058936834335327
1670388021689559800,7.961559814453125,0.08148195594549179,0.058150842785835266,0.1859261691570282
1670388021699490800,7.97149072265625,0.06428571045398712,0.09217583388090134,0.17980381846427917
1670388021709422800,7.9814228515625,0.06516215950250626,0.12811972200870514,0.1822185069322586
1670388021719353600,7.991353515625,0.09411409497261047,0.14631150662899017,0.18696627020835876
1670388021729285600,8.00128564453125,0.1401476263999939,0.15972158312797546,0.20797941088676453
1670388021739217000,8.011216796875,0.1708412766456604,0.14892062544822693,0.22046242654323578
1670388021749149000,8.02114892578125,0.1988324373960495,0.10503065586090088,0.22347737848758698
1670388021759079700,8.03107958984375,0.23517391085624695,0.05758848413825035,0.23043768107891083
1670388021769011700,8.04101171875,0.2582704424858093,0.07990417629480362,0.34684231877326965
1670388021778942700,8.050942626953125,0.2130862921476364,-0.0786062702536583,0.5241584777832031
1670388021788874800,8.060874755859375,0.16877955198287964,-0.13027451932430267,0.5616744160652161
1670388021798805800,8.0708056640625,0.12853066623210907,-0.05993325263261795,0.5416373610496521
1670388021808737800,8.08073779296875,0.11406011879444122,-0.056887924671173096,0.44927921891212463
1670388021818668800,8.090668701171875,0.12454252690076828,-0.022932779043912888,0.3230505585670471
1670388021828600800,8.100600830078125,0.14475752413272858,0.016396252438426018,0.17038510739803314
1670388021838531800,8.11053173828125,0.160953089594841,0.04417220503091812,0.034997474402189255
1670388021848464000,8.1204638671875,0.16501547396183014,0.05385545641183853,-0.07278092205524445
1670388021858395000,8.130394775390625,0.14859364926815033,0.0575280487537384,-0.15447936952114105
1670388021868327000,8.140326904296876,0.12003497779369354,0.07725941389799118,-0.22340385615825653
1670388021878257700,8.150257568359375,0.09135422855615616,0.09630310535430908,-0.2639153003692627
1670388021888189700,8.160189697265626,0.07327882200479507,0.13319054245948792,-0.26180365681648254
1670388021898121000,8.170120849609376,0.04554874822497368,0.13258175551891327,-0.21186155080795288
1670388021908052700,8.180052734375,0.000144515885040164,0.11920523643493652,-0.13656200468540192
