time,seconds_elapsed,z,y,x
1669498384336554200,0.02155419921875,0.0003580551128834486,0.0056996895000338554,-0.0022047501988708973
1669498384346486000,0.031486083984375,-0.0013833807315677404,-0.012247547507286072,-0.010060830973088741
1669498384356418000,0.04141796875,0.00092131900601089,0.010693986900150776,-0.0022375290282070637
1669498384366350000,0.05135009765625,0.00021598627790808678,0.011908887885510921,-0.004687388427555561
1669498384376282000,0.0612822265625,-0.0016487590037286282,-0.006326841190457344,-0.014414584264159203
1669498384386214100,0.071214111328125,-0.0008865741547197104,0.0023961388505995274,-0.002913154661655426
1669498384396146200,0.081146240234375,0.00043408735655248165,0.006583692971616983,-0.006277792155742645
1669498384406078200,0.091078125,0.0013235174119472504,0.0022961555514484644,-0.003477084683254361
1669498384416010200,0.10101025390625,0.0008193810936063528,0.0033949760254472494,-0.013306545093655586
1669498384425942300,0.1109423828125,0.0021377147641032934,-0.003436845727264881,-0.007832827046513557
1669498384435874300,0.120874267578125,0.0016620741225779057,-0.006902417168021202,-0.0015696045011281967
1669498384445806300,0.130806396484375,-0.0008875075727701187,-0.011317110620439053,0.004827060271054506
1669498384455738400,0.14073828125,-0.001041437964886427,-0.011342677287757397,0.005958637688308954
1669498384465670100,0.150670166015625,-0.0008279865141957998,-0.005464321002364159,-0.0009416020475327969
1669498384475602200,0.160602294921875,-0.0008785866666585207,-0.002382510807365179,0.0014296765439212322
1669498384485534200,0.1705341796875,0.0017833795864135027,-0.00020666932687163353,0.004291764926165342
1669498384495466200,0.18046630859375,-0.0013554221950471401,0.0018072128295898438,-0.0007535936310887337
1669498384505399300,0.1903994140625,0.0017273863777518272,-0.0014572776854038239,-0.0010735630057752132
1669498384515331300,0.200331298828125,0.0002392120659351349,-0.0036258897744119167,-0.00058700330555439
1669498384525263400,0.210263427734375,0.0030708962585777044,0.0011439253576099873,0.0025308504700660706
1669498384535195100,0.220195068359375,0.0014812553999945521,0.0007359292358160019,0.005065646953880787
1669498384545127200,0.230127197265625,-0.0001324878539890051,0.0013092078734189272,0.0019236528314650059
1669498384555059200,0.24005908203125,-0.0004661818966269493,-0.004775582812726498,0.003128200303763151
1669498384564991200,0.2499912109375,-0.002305823378264904,0.0003565778024494648,0.00329423975199461
1669498384574923300,0.25992333984375,0.000092353206127882,0.001633297186344862,-0.0015979870222508907
1669498384584855000,0.26985498046875,-0.0002846871502697468,0.00007499894127249718,-0.0010303216986358166
1669498384594787000,0.279787109375,0.00002184254117310047,0.003516335738822818,-0.001150430180132389
1669498384604719000,0.289718994140625,0.0009775955695658922,-0.00009176856838166714,-0.003299494506791234
1669498384614651100,0.299651123046875,-0.000835484592244029,0.003425468225032091,-0.0027700583450496197
1669498384624583200,0.309583251953125,-0.0007825063075870275,0.0025680502876639366,-0.00393032468855381
1669498384634515200,0.31951513671875,0.001100881490856409,-0.0021566639188677073,0.000028464477509260178
1669498384644447000,0.329447021484375,0.0002528743352741003,-0.0003351625055074692,-0.002534464467316866
1669498384654379000,0.33937890625,-0.0021698034834116697,-0.0033922051079571247,0.0017407084815204144
1669498384664311300,0.349311279296875,-0.00011304579675197601,-0.0032200361602008343,-0.001447346992790699
1669498384674243300,0.359243408203125,-0.0007362253963947296,0.005825656466186047,-0.010130317881703377
1669498384684175400,0.36917529296875,-0.0029036274645477533,0.004909901414066553,-0.01019772794097662
1669498384694107400,0.379107421875,0.000875398050993681,-0.013862455263733864,-0.0015240791253745556
1669498384704039200,0.3890390625,-0.0020356308668851852,-0.007791796699166298,-0.0038909721188247204
1669498384713971200,0.39897119140625,-0.0006060460582375526,0.005275002680718899,-0.0077682682313025
1669498384723903200,0.4089033203125,-0.0010723755694925785,0.0013717350084334612,-0.0018504150211811066
1669498384733835300,0.418835205078125,-0.0000902016181498766,-0.00377162778750062,0.002443132922053337
1669498384743767300,0.428767333984375,-0.0010087834671139717,0.0028180547524243593,-0.0020596333779394627
1669498384753699300,0.43869921875,-0.002555813640356064,0.002142410958185792,-0.004039427265524864
1669498384763631000,0.448631103515625,-0.0030911171343177557,-0.002429853193461895,-0.0018039257265627384
1669498384773563100,0.458563232421875,0.0007480960339307785,-0.004347861744463444,0.002366851083934307
1669498384783495200,0.4684951171875,0.0003881084267050028,-0.0013899628538638353,0.0012196768075227737
1669498384793427200,0.47842724609375,-0.0014313634019345045,0.00389135186560452,0.0018460527062416077
1669498384803359200,0.488359130859375,0.0015082390746101737,0.00024801958352327347,0.0024662879295647144
1669498384813291300,0.498291259765625,-0.0000600963830947876,0.0003153975121676922,0.0011530839838087559
1669498384823223000,0.50822314453125,0.0009771338663995266,-0.000611242139711976,0.0019114422611892223
1669498384833155000,0.518155029296875,-0.0019595336634665728,-0.0005324126686900854,-0.00034079281613230705
1669498384843087000,0.528087158203125,-0.0013203076086938381,-0.0014476904179900885,-0.000870097428560257
1669498384853019100,0.53801904296875,-0.0025064791552722454,0.00015127146616578102,-0.00017447955906391144
1669498384862951200,0.547951171875,0.002526436932384968,-0.0017953736241906881,-0.0007096664048731327
1669498384872883200,0.55788330078125,-0.0003377930261194706,-0.0002475443761795759,-0.0025528399273753166
1669498384882815200,0.567815185546875,0.0016050488920882344,-0.0021936031989753246,-0.0006067221984267235
1669498384892747300,0.577747314453125,0.0012279453221708536,0.00007967092096805573,-0.002559618093073368
1669498384902679300,0.58767919921875,-0.0021575940772891045,0.00035234028473496437,0.0006803949363529682
1669498384912611300,0.597611328125,-0.00009737280197441578,0.0020996402017772198,0.0018287496641278267
1669498384922543400,0.60754345703125,0.00036316411569714546,-0.00013750651851296425,0.0023522069677710533
1669498384932475100,0.61747509765625,-0.000855232123285532,-0.00005015474744141102,0.0016683079302310944
1669498384942407200,0.6274072265625,0.00042763235978782177,0.000698538962751627,-0.0024074167013168335
1669498384952339200,0.637339111328125,-0.0023878617212176323,-0.00034062634222209454,-0.0019115363247692585
1669498384962271200,0.647271240234375,-0.0006531747058033943,0.0005843262188136578,-0.0003610546700656414
1669498384972203300,0.657203369140625,0.00012579979375004768,0.001315896399319172,-0.00037596840411424637
1669498384982135300,0.66713525390625,0.0003371054772287607,-0.0006727734580636024,-0.000421362929046154
1669498384992067000,0.677067138671875,-0.001896754140034318,0.0005706564988940954,0.0012063607573509216
1669498385001999600,0.68699951171875,-0.0008933516219258308,0.0000727467704564333,0.001390382181853056
1669498385011931600,0.696931640625,0.0006305093411356211,-0.0017565785674378276,-0.0035694888792932034
1669498385021863400,0.706863525390625,0.0006390446797013283,0.0007215801160782576,0.0005084634758532047
1669498385031795500,0.71679541015625,-0.0005668348167091608,-0.002107496140524745,-0.001974667888134718
1669498385041727500,0.7267275390625,0.0014872699975967407,0.0013271970674395561,0.0008803834207355976
1669498385051659500,0.736659423828125,-0.001987356459721923,0.000510405283421278,0.0011805216781795025
1669498385061591600,0.746591552734375,-0.0004936475306749344,0.0008583150338381529,0.0011333799920976162
1669498385071523600,0.756523681640625,-0.0005399866495281458,0.00005190982483327389,0.0002619936130940914
1669498385081456600,0.76645654296875,-0.00013056397438049316,-0.0004200022667646408,0.0013980981893837452
1669498385091387400,0.776387451171875,0.00010592467151582241,0.0000596330501139164,0.00006412062793970108
1669498385101320400,0.786320556640625,0.0008858067449182272,0.00041423551738262177,0.0010342961177229881
1669498385111252500,0.79625244140625,-0.00048652011901140213,-0.0014598309062421322,-0.0009233937598764896
1669498385121184500,0.8061845703125,-0.0007890723645687103,-0.00038548209704458714,-0.0009766388684511185
1669498385131116500,0.816116455078125,0.004283716902136803,-0.0008408825378865004,-0.001110329758375883
1669498385141048600,0.826048583984375,-0.00002501695416867733,0.00037595187313854694,0.0013709268532693386
1669498385150980400,0.83598046875,-0.0010942760854959488,-0.0008006326388567686,-0.00028209760785102844
1669498385160912600,0.84591259765625,-0.0005980476271361113,0.0031568235717713833,0.0005921241827309132
1669498385170844700,0.8558447265625,-0.001168230315670371,-0.0005447037983685732,-0.0027445503510534763
1669498385180776700,0.865776611328125,-0.00030506844632327557,-0.0032554948702454567,0.0005963738076388836
1669498385190708700,0.875708740234375,-0.00025340309366583824,-0.002649093046784401,0.00017479527741670609
1669498385200640800,0.885640869140625,0.0015458576381206512,-0.003915049135684967,-0.0005179261788725853
1669498385210572500,0.895572509765625,0.0012190877459943295,0.0007430857513099909,-0.0006979559548199177
1669498385220504600,0.905504638671875,-0.0016608266159892082,0.00028212182223796844,-0.0012934203259646893
1669498385230436600,0.9154365234375,-0.0005114064551889896,-0.0015301593812182546,0.0004586735740303993
1669498385240368600,0.92536865234375,-0.0008363455999642611,-0.0015708550345152617,-0.001134298276156187
1669498385250300700,0.93530078125,0.0005690043326467276,0.0027722278609871864,0.00005427049472928047
1669498385260232700,0.945232666015625,-0.002403832273557782,-0.0013011146802455187,0.0009256680496037006
1669498385270164500,0.95516455078125,0.0006883642636239529,-0.000052358489483594894,0.0028684441931545734
1669498385280096500,0.965096435546875,-0.003247275948524475,-0.0009206912945955992,0.003855242393910885
1669498385290028500,0.975028564453125,-0.002028081100434065,0.00021914159879088402,-0.00047825369983911514
1669498385299960600,0.984960693359375,-0.0006855821702629328,0.00150783802382648,0.0003900011070072651
1669498385309892600,0.994892578125,0.00007315212860703468,0.001996261766180396,-0.000029713381081819534
1669498385319824400,1.004824462890625,-0.0012891530059278011,-0.0019467063248157501,0.0020450777374207973
1669498385329756400,1.01475634765625,-0.002086769789457321,-0.0016865154029801488,0.0008988524787127972
1669498385339688400,1.0246884765625,-0.0004669106565415859,-0.0010916453320533037,-0.005417244508862495
1669498385349620500,1.034620361328125,-0.0006173793226480484,0.0007392780389636755,-0.000709041953086853
1669498385359552500,1.044552490234375,0.00007685809396207333,-0.0004570106975734234,0.000047122128307819366
1669498385369484500,1.054484619140625,-0.0012376781087368727,0.000866846414282918,-0.0020935265347361565
1669498385379416600,1.06441650390625,-0.0024440293200314045,0.0006929473020136356,-0.00304434634745121
1669498385389348600,1.0743486328125,-0.003150832373648882,-0.0016817932482808828,0.0015882221050560474
1669498385399280600,1.08428076171875,0.0006983790080994368,0.0008308973629027605,0.002759772352874279
1669498385409212700,1.094212646484375,-0.002818325301632285,-0.004867468494921923,-0.0011422913521528244
1669498385419144700,1.104144775390625,-0.0004908244591206312,0.0009474263060837984,-0.001094653271138668
1669498385429076700,1.11407666015625,0.0006319640669971704,-0.002522406168282032,0.0005623656325042248
1669498385439008500,1.124008544921875,0.0011830648873001337,-0.0007882618810981512,-0.0021542501635849476
1669498385448940500,1.1339404296875,0.00005654781125485897,0.00019550975412130356,0.0006924024783074856
1669498385458872600,1.14387255859375,-0.0003344507422298193,0.0015418499242514372,-0.0021575181744992733
1669498385468804600,1.1538046875,-0.0013741485308855772,-0.00040785036981105804,-0.000898109283298254
1669498385478736600,1.163736572265625,0.0011647527571767569,0.00033199507743120193,-0.0007398803718388081
1669498385488668700,1.173668701171875,0.001573015470057726,-0.00037294370122253895,0.002770432271063328
1669498385498600400,1.183600341796875,-0.0018598653841763735,-0.0006470894441008568,-0.0011000270023941994
1669498385508532500,1.193532470703125,0.0000205927062779665,-0.00012670760042965412,-0.0018481086008250713
1669498385518464500,1.203464599609375,0.0010676204692572355,0.0021697068586945534,-0.0023027746938169003
1669498385528396500,1.213396484375,0.000673206290230155,0.0015752892941236496,0.0022754655219614506
1669498385538328600,1.22332861328125,-0.0033810026943683624,0.0013253928627818823,-0.0005475208163261414
1669498385548260600,1.233260498046875,-0.00022728717885911465,0.00012217671610414982,0.001576616894453764
1669498385558192400,1.2431923828125,0.0006396991666406393,-0.0006515597924590111,-0.00014812545850872993
1669498385568124400,1.25312451171875,-0.0003869493957608938,-0.0004265226889401674,-0.002308481838554144
1669498385578056400,1.263056396484375,-0.0024713973980396986,0.0015408552717417479,-0.00007317913696169853
1669498385587988700,1.27298876953125,0.0015537043800577521,0.0017158251721411943,0.0015433598309755325
1669498385597920800,1.282920654296875,-0.0011421849485486746,-0.0004969569854438305,-0.0005371985025703907
1669498385607852500,1.2928525390625,0.00023653358221054077,-0.00031772605143487453,-0.00014065392315387726
1669498385617784600,1.30278466796875,-0.0011269219685345888,-0.00022611906751990318,-0.0006885980255901814
1669498385627716600,1.312716552734375,0.0002331542782485485,0.00015231617726385593,-0.000825751107186079
1669498385637648600,1.322648681640625,0.0008777142502367496,-0.00030839908868074417,0.0017227944917976856
1669498385647580700,1.33258056640625,-0.0013036811724305153,-0.001546236453577876,-0.0019797980785369873
1669498385657512700,1.3425126953125,-0.001125997630879283,-0.0007749053183943033,0.00005016010254621506
1669498385667444500,1.352444580078125,0.0007347529754042625,-0.0025954421143978834,-0.0004931245930492878
1669498385677376500,1.36237646484375,-0.0001460532657802105,-0.0020403030794113874,-0.001149957999587059
1669498385687308500,1.37230859375,0.00025661662220954895,-0.0002812852617353201,0.0026932498440146446
1669498385697240600,1.382240478515625,0.0038196900859475136,-0.0022158874198794365,0.00045110611245036125
1669498385707172600,1.392172607421875,-0.0009726679418236017,0.000481894938275218,-0.0009214868769049644
1669498385717104600,1.402104736328125,-0.0008510558400303125,-0.0016304582823067904,0.00015192199498414993
1669498385727037700,1.41203759765625,-0.0015565271023660898,0.001886512152850628,0.0006118500605225563
1669498385736969500,1.421969482421875,-0.0033939778804779053,-0.0013748039491474628,0.0010707383044064045
1669498385746901500,1.431901611328125,-0.0007169684395194054,0.0008105861488729715,0.0015477105043828487
1669498385756833500,1.44183349609375,-0.0008546537719666958,0.002304777270182967,-0.000678949523717165
1669498385766765600,1.451765625,-0.0007276209071278572,0.003682164242491126,0.0013639619573950768
1669498385776697600,1.461697509765625,-0.0014732268173247576,0.0009463303722441196,-0.002085462212562561
1669498385786629600,1.471629638671875,-0.0004622910637408495,-0.001442258944734931,0.00037157023325562477
1669498385796561400,1.4815615234375,0.0004175507929176092,-0.0025179563090205193,0.002452597487717867
1669498385806493400,1.491493408203125,0.0004777382127940655,0.00023628468625247478,-0.000772490631788969
1669498385816425500,1.501425537109375,0.0003767742309719324,0.001961400266736746,-0.0029649175703525543
1669498385826357500,1.511357421875,-0.001207007560878992,-0.0024868776090443134,0.0007893410511314869
1669498385836289500,1.52128955078125,-0.00012012477964162827,-0.00026261317543685436,0.0008175834082067013
1669498385846221600,1.5312216796875,-0.0012940461747348309,0.00036962120793759823,0.000561919528990984
1669498385856153600,1.541153564453125,-0.0006786640733480453,0.0011264008935540915,0.0006607710383832455
1669498385866085600,1.551085693359375,-0.0006997031159698963,-0.0019175923662260175,-0.00039517227560281754
1669498385876017700,1.561017578125,-0.0005987139884382486,0.00013603758998215199,0.0010618125088512897
1669498385885949700,1.57094970703125,-0.0014804864767938852,0.00025534722954034805,-0.002965952269732952
1669498385895881700,1.5808818359375,0.00016255280934274197,-0.0016124373069033027,-0.0027482123114168644
1669498385905813500,1.5908134765625,0.0006339324172586203,-0.000673140399158001,-0.0000336524099111557
1669498385915745500,1.60074560546875,-0.0012957118451595306,0.001157510792836547,-0.0002822279930114746
1669498385925677600,1.610677490234375,-0.001162820030003786,0.00017826654948294163,-0.002141114789992571
1669498385935609600,1.620609619140625,-0.0007123337127268314,-0.00405985489487648,-0.0019876831211149693
1669498385945541600,1.630541748046875,0.000402465695515275,-0.0008957532700151205,0.0001431116834282875
1669498385955473700,1.6404736328125,-0.0010082926601171494,0.0006249374710023403,-0.0005563385784626007
1669498385965405400,1.650405517578125,-0.0012122904881834984,0.001598323229700327,-0.0018466399051249027
1669498385975337500,1.66033740234375,-0.0008132178336381912,-0.0018476027762517333,-0.0012702997773885727
1669498385985269500,1.67026953125,-0.0013234796933829784,0.0022246367298066616,0.001125213224440813
1669498385995201500,1.680201416015625,-0.0007250194903463125,0.0019017450977116823,0.001916815061122179
1669498386005133000,1.690133056640625,-0.001632091822102666,-0.00014303019270300865,0.00017883628606796265
1669498386015064800,1.70006494140625,0.0010036879684776068,-0.000833586324006319,0.0006979061290621758
1669498386024997000,1.7099970703125,-0.002321268431842327,0.0024338457733392715,0.003300880081951618
1669498386034929200,1.71992919921875,0.0008914703503251076,-0.0008727351669222116,0.0014210385270416737
1669498386044861200,1.729861083984375,-0.0015378652606159449,-0.000006408896297216415,0.0003890637308359146
1669498386054793200,1.739793212890625,0.000012230128049850464,-0.0013533716555684805,0.0008115433156490326
1669498386064725200,1.749725341796875,0.002780586015433073,-0.0009693438187241554,-0.00007156142964959145
1669498386074657000,1.759656982421875,-0.0008145731408149004,-0.0015373928472399712,-0.0009402907453477383
1669498386084589000,1.769589111328125,-0.000512836966663599,-0.0006026232149451971,-0.0009544058702886105
1669498386094521000,1.77952099609375,-0.0015849024057388306,-0.0007620467804372311,-0.001636476255953312
1669498386104453000,1.789453125,0.00022551463916897774,-0.0016920225461944938,0.0003156205639243126
1669498386114385200,1.79938525390625,-0.0012748944573104382,0.00026013213209807873,-0.0003992505371570587
1669498386124317200,1.809317138671875,-0.002337495796382427,0.0024567071814090014,-0.0013095191679894924
1669498386134249000,1.8192490234375,0.0007449367549270391,-0.0026376377791166306,0.001377403736114502
1669498386144181000,1.829180908203125,-0.0007435041479766369,0.001740066334605217,-0.0006069173105061054
1669498386154113000,1.839113037109375,0.0011891084723174572,0.00003177672624588013,-0.003840494202449918
1669498386164045000,1.849045166015625,0.000989637803286314,0.0023119752295315266,0.000792074017226696
1669498386173977000,1.85897705078125,-0.0001257380936294794,-0.000784384785220027,0.000670374371111393
1669498386183909000,1.8689091796875,0.0006974451243877411,-0.0006530908867716789,-0.00334940105676651
1669498386193841000,1.8788408203125,-0.0008721137419342995,-0.0001940235961228609,0.0014430312439799309
1669498386203773000,1.88877294921875,-0.0004241699352860451,-0.0004121363162994385,0.0000584539957344532
1669498386213705000,1.898705078125,-0.000800643116235733,0.00032962486147880554,-0.0009264084510505199
1669498386223637000,1.908636962890625,0.0015629122499376535,0.0011695860885083675,0.0005290089175105095
1669498386233569000,1.918569091796875,-0.0002346544060856104,-0.0005539318080991507,0.00019449135288596153
1669498386243501300,1.928501220703125,-0.0007289368659257889,-0.0013584727421402931,-0.0009807613678276539
1669498386253433000,1.93843310546875,-0.0028753704391419888,0.0032976996153593063,0.0002860953100025654
1669498386263365000,1.948365234375,-0.0005198044236749411,0.0018899524584412575,-0.0015584100037813187
1669498386273297200,1.958297119140625,0.00017847120761871338,-0.0011340524069964886,0.00023639202117919922
1669498386283229200,1.968229248046875,0.00011748494580388069,-0.0006541507318615913,0.001011105254292488
1669498386293161200,1.9781611328125,-0.002369643421843648,0.0015396210364997387,-0.00227529089897871
1669498386303093000,1.988093017578125,0.0016200380632653832,-0.0001562798861414194,-0.002099256031215191
1669498386313025000,1.99802490234375,0.000765868928283453,-0.001045346725732088,-0.0017549931071698666
1669498386322957000,2.00795703125,-0.0021087469067424536,-0.003615563502535224,-0.0014852145686745644
1669498386332890000,2.01789013671875,-0.002157608512789011,0.002311151707544923,0.00020796200260519981
1669498386342822100,2.027822265625,-0.001677440945059061,-0.0004116643685847521,-0.00018565310165286064
1669498386352754200,2.037754150390625,0.0004733272362500429,-0.0019155339105054736,0.0029060086235404015
1669498386362686200,2.047686279296875,0.00008557084947824478,-0.001211394090205431,0.0014761574566364288
1669498386372618000,2.057617919921875,-0.0022230574395507574,-0.00031232135370373726,-0.0005155070684850216
1669498386382550000,2.067550048828125,0.0009658117778599262,-0.00038795522414147854,0.0021460559219121933
1669498386392482000,2.07748193359375,-0.0011467619333416224,-0.0010686307214200497,-0.0021839505061507225
1669498386402414000,2.0874140625,0.001549954991787672,0.0008118273690342903,0.0008283508941531181
1669498386412346000,2.09734619140625,-0.0008023455739021301,-0.0032971175387501717,-0.00181121239438653
1669498386422278100,2.107278076171875,-0.0010534818284213543,-0.0016744533786550164,0.001893510576337576
1669498386432210000,2.1172099609375,0.001188803231343627,0.00144430180080235,0.002538385335355997
1669498386442142000,2.127141845703125,0.0005515089724212885,0.001418735133484006,-0.0009596771560609341
1669498386452074000,2.137073974609375,-0.0008352503646165133,0.0027649442199617624,0.0007334267720580101
1669498386462006000,2.147006103515625,0.0007493305020034313,-0.0009530950337648392,-0.0007446273230016232
1669498386471938000,2.15693798828125,-0.00006891600787639618,0.00038452656008303165,-0.0031573246233165264
1669498386481870000,2.1668701171875,-0.00041273003444075584,-0.000021871645003557205,-0.0005407687276601791
1669498386491801900,2.1768017578125,-0.0021319000516086817,-0.00026685488410294056,-0.0011020940728485584
1669498386501734100,2.186734130859375,0.00013178703375160694,-0.000681242672726512,0.0008132518269121647
1669498386511666200,2.196666259765625,-0.002023126231506467,0.000983057077974081,-0.002186915371567011
1669498386521598200,2.20659814453125,0.00021739117801189423,0.0010901158675551414,-0.0034327420871704817
1669498386531530200,2.2165302734375,0.0005681756883859634,-0.0006370856426656246,0.002886763773858547
1669498386541462300,2.226462158203125,0.000698404386639595,0.0024567083455622196,-0.0014592492952942848
1669498386551394000,2.23639404296875,-0.002049538539722562,0.0007340596057474613,-0.004406406544148922
1669498386561326000,2.246326171875,-0.002757939277216792,-0.0015725040575489402,0.0003473362885415554
1669498386571258000,2.256258056640625,0.0020145662128925323,0.0006318637169897556,0.0004132459871470928
1669498386581190100,2.266190185546875,-0.00044672703370451927,0.0007293354719877243,0.0010681170970201492
1669498386591122200,2.2761220703125,-0.0021175493020564318,0.00035544787533581257,0.0011976230889558792
1669498386601054000,2.286053955078125,0.0005424157716333866,0.002781854011118412,0.0018093511462211609
1669498386610986000,2.295986083984375,-0.0005729771219193935,-0.000057407887652516365,0.0006434605456888676
1669498386620918000,2.30591796875,-0.002022002823650837,-0.0002779175993055105,-0.0003512301482260227
1669498386630850000,2.31585009765625,-0.0013826005160808563,0.0007369308732450008,-0.0008453414775431156
1669498386640782000,2.325781982421875,0.0021306416019797325,0.0007502464577555656,-0.0003625103272497654
1669498386650714000,2.335714111328125,0.0007292816881090403,-0.0013495973544195294,0.0008610142394900322
1669498386660646000,2.34564599609375,-0.0005005660932511091,-0.002940037054941058,0.0007014907896518707
1669498386670578000,2.355577880859375,0.0017005272675305605,-0.00041110580787062645,-0.0018555610440671444
1669498386680510000,2.365510009765625,-0.0013320143334567547,-0.00040977424941956997,0.000460856594145298
1669498386690442000,2.37544189453125,0.0006989343091845512,0.000542051624506712,0.003565716091543436
1669498386700374000,2.3853740234375,-0.0008630095981061459,-0.001966113457456231,-0.001491626724600792
1669498386710306000,2.39530615234375,-0.001358468784019351,0.00009454507380723953,0.0002444344572722912
1669498386720238000,2.405238037109375,0.0004554102197289467,-0.0011688584927469492,0.0016066418029367924
1669498386730170000,2.415170166015625,-0.0017415492329746485,0.0014026453718543053,0.0017177723348140717
1669498386740102100,2.42510205078125,0.0006829926278442144,-0.0007300141733139753,-0.0013595102354884148
1669498386750034200,2.4350341796875,0.0010457830503582954,-0.0011083309073001146,-0.0013870187103748322
1669498386759966200,2.44496630859375,-0.0007662319112569094,-0.00117810582742095,-0.0016701123677194118
1669498386769898200,2.454898193359375,-0.00014298758469522,0.00045553315430879593,-0.000540412962436676
1669498386779830000,2.464830078125,-0.0006186279933899641,-0.0019634158816188574,-0.002433121670037508
1669498386789762000,2.474761962890625,0.0027529182843863964,-0.001390728633850813,-0.0013624932616949081
1669498386799694000,2.484694091796875,-0.0001480630598962307,-0.00034170947037637234,-0.00013584131374955177
1669498386809626000,2.494626220703125,0.0008647844661027193,0.0018974929116666317,0.0030660112388432026
1669498386819558100,2.50455810546875,0.00045891874469816685,0.0016578086651861668,0.000668634194880724
1669498386829490200,2.514490234375,0.00023051491007208824,-0.0010327366180717945,0.00024391477927565575
1669498386839422000,2.524421875,0.00046221003867685795,-0.001201048493385315,0.003599497489631176
1669498386849354000,2.53435400390625,-0.000052580609917640686,0.00018775416538119316,0.00404970021918416
1669498386859286000,2.5442861328125,-0.0015873601660132408,0.0002506047021597624,-0.00156451016664505
1669498386869218000,2.554218017578125,0.0010137087665498257,0.0003718794323503971,-0.0016441373154520988
1669498386879150000,2.564150146484375,-0.00008138315752148628,-0.00022999499924480915,-0.0016124453395605087
1669498386889081900,2.574081787109375,0.0013213499914854765,0.002124618738889694,0.0028161555528640747
1669498386899014000,2.584013916015625,-0.002820397960022092,0.0009195380844175816,-0.0008630016818642616
1669498386908946000,2.59394580078125,-0.0004050408024340868,0.0024074253160506487,0.0003227344714105129
1669498386918878000,2.6038779296875,0.001013358822092414,-0.0000804997980594635,-0.0004959208890795708
1669498386928810200,2.613810302734375,-0.002301605185493827,-0.0012873962987214327,0.0016417023725807667
1669498386938742300,2.6237421875,-0.0018555258866399527,0.0021848331671208143,-0.001566074788570404
1669498386948674000,2.633674072265625,0.00002555432729423046,0.0003828143235296011,-0.0020627700723707676
1669498386958606000,2.643606201171875,-0.001162481727078557,0.0002927994355559349,-0.0014619608409702778
1669498386968538000,2.6535380859375,-0.0005726856179535389,0.0008097747340798378,0.0014505032449960709
1669498386978470100,2.66347021484375,-0.0025487509556114674,0.002830581273883581,0.0018635597079992294
1669498386988402200,2.673402099609375,-0.002170496853068471,-0.0021813497878611088,0.002248655539005995
1669498386998334200,2.683334228515625,0.0015494063263759017,-0.001078002154827118,0.0041051446460187435
1669498387008266000,2.693265869140625,0.0002824219409376383,-0.001470676506869495,0.0020737722516059875
1669498387018198000,2.703197998046875,0.0015170632395893335,-0.001233122544363141,0.0014045201241970062
1669498387028131000,2.713131103515625,-0.0007968952413648367,-0.0009758700616657734,0.002322209533303976
1669498387038063000,2.72306298828125,-0.002044053515419364,-0.0006573561113327742,0.0028657601214945316
1669498387047995100,2.7329951171875,0.0004535173065960407,0.001110344659537077,0.002211789134889841
1669498387057927200,2.74292724609375,-0.0014993788208812475,0.0009609409607946873,0.0017012604512274265
1669498387067859200,2.752859130859375,0.0007308442145586014,0.0002844356931746006,0.0024932590313255787
1669498387077791000,2.762791015625,0.0005843702238053083,0.00035074842162430286,0.0037020682357251644
1669498387087723000,2.772722900390625,0.0012459782883524895,0.0016248079482465982,0.002073998562991619
1669498387097655000,2.782655029296875,-0.0012187773827463388,-0.0019275826634839177,0.00015732133761048317
1669498387107587000,2.792587158203125,0.0015957942232489586,0.000536840409040451,0.0023287408985197544
1669498387117519000,2.80251904296875,0.0005038981325924397,0.000864675734192133,0.002815567422658205
1669498387127451100,2.812451171875,-9.459909051656723e-7,-0.0031863441690802574,-0.0008601779118180275
1669498387137383000,2.8223828125,0.00040545244701206684,-0.0014576864195987582,-0.001314513385295868
1669498387147315000,2.83231494140625,0.0016890147235244513,0.0020019738003611565,-0.0011393525637686253
1669498387157247000,2.8422470703125,-0.0003296614158898592,-0.0005770314019173384,0.001796250231564045
1669498387167179000,2.852178955078125,-0.0013128151185810566,0.0031660275999456644,0.0033691832795739174
1669498387177111000,2.862111083984375,-0.0013615512289106846,-0.00042817462235689163,0.0021212268620729446
1669498387187043000,2.87204296875,0.001818377641029656,0.0012649670243263245,0.0006391615606844425
1669498387196975000,2.88197509765625,0.0008346058893948793,-0.0008013797923922539,0.002090051770210266
1669498387206907100,2.8919072265625,0.0008995002135634422,0.0005092180799692869,-0.0021006986498832703
1669498387216839200,2.901839111328125,-0.0021519497968256474,0.00001946277916431427,0.0009472891688346863
1669498387226771200,2.911771240234375,-0.0001883767545223236,-0.00037905294448137283,-0.0018696673214435577
1669498387236703200,2.921703125,-0.0027079936116933823,0.00009445706382393837,-0.0037282875273376703
1669498387246635000,2.931635009765625,-0.001767792273312807,-0.0007848383393138647,-0.0026953895576298237
1669498387256567000,2.941567138671875,0.00042372290045022964,0.0010631291661411524,-0.00207141088321805
1669498387266499000,2.9514990234375,-0.0016135047189891338,0.0025099432095885277,-0.0023896670900285244
1669498387276431000,2.96143115234375,0.0024507450871169567,0.00019965111277997494,0.0009653829038143158
1669498387286363100,2.971363037109375,0.0015710965963080525,-0.002284248359501362,0.0012960243038833141
1669498387296295200,2.981295166015625,-0.0008294768631458282,0.001384522533044219,-0.003407916985452175
1669498387306227000,2.99122705078125,-0.0012250361032783985,-0.0012373914942145348,-0.0010690055787563324
1669498387316159000,3.001158935546875,0.0006706018466502428,0.000707781407982111,0.00090040173381567
1669498387326091000,3.011091064453125,0.00003809179179370403,-0.0037048012018203735,-0.000054572708904743195
1669498387336023000,3.02102294921875,-0.0024535618722438812,-0.00008796202018857002,-0.004142258316278458
1669498387345955000,3.030955078125,-0.0023211997468024492,-0.0017476569628342986,-0.001697345171123743
1669498387355887000,3.04088720703125,0.0000964177306741476,-0.0004925092216581106,0.0027019307017326355
1669498387365819000,3.05081884765625,-0.0021382556296885014,-0.0012706783600151539,-0.0026888707652688026
1669498387375751000,3.0607509765625,-0.000585898756980896,0.00004172720946371555,0.0017564776353538036
1669498387385683000,3.070682861328125,0.001457007834687829,-0.0020672823302447796,0.0016624722629785538
1669498387395615000,3.080614990234375,0.0017630050424486399,0.001459808088839054,0.0007253056392073631
1669498387405547300,3.09054736328125,0.001052827574312687,-0.0012966033536940813,-0.0004725768230855465
1669498387415479300,3.100479248046875,-0.0012987437658011913,-0.0019868947565555573,-0.0004259715788066387
1669498387425411000,3.1104111328125,-0.0007473109290003777,-0.0010012469720095396,-0.000295375008136034
1669498387435343000,3.120343017578125,-0.0008074981160461903,-0.0017128435429185629,0.00016987882554531097
1669498387445275100,3.130275146484375,0.001368196913972497,-0.0004727635532617569,0.00006403494626283646
1669498387455207200,3.140207275390625,0.00043449271470308304,0.0009704031981527805,-0.002505116630345583
1669498387465139200,3.15013916015625,-0.0009346597362309694,0.0005938112735748291,-0.0020221578888595104
1669498387475071000,3.160071044921875,-0.00040682125836610794,-0.002456307178363204,-0.0010042977519333363
1669498387485003000,3.1700029296875,0.0005065666045993567,0.0014798524789512157,-0.0007971073500812054
1669498387494935000,3.17993505859375,-0.0012710934970527887,-0.0020541620906442404,-0.00118539622053504
1669498387504867000,3.1898671875,-0.0034655274357646704,0.0019937758333981037,-0.0005432977341115475
1669498387514799000,3.199799072265625,-0.00141649111174047,-0.00005552684888243675,-0.0021550427190959454
1669498387524731100,3.209731201171875,-0.0017958830576390028,0.0008217203430831432,-0.0001490325666964054
1669498387534663000,3.219662841796875,-0.0013338245917111635,0.00022836821153759956,0.002367920707911253
1669498387544595000,3.229594970703125,-0.0018545673228800297,-0.0013182924594730139,0.00014420785009860992
1669498387554527000,3.23952685546875,0.0008690475951880217,-0.0004676789976656437,0.0008821696974337101
1669498387564459000,3.249458984375,0.001678532687947154,-0.000902093481272459,0.001290758140385151
1669498387574391000,3.25939111328125,-0.001099410466849804,-0.001151897944509983,0.002080119214951992
1669498387584323000,3.269322998046875,-0.0013595889322459698,0.003629563841968775,-0.00040844734758138657
1669498387594254800,3.2792548828125,0.0015017110854387283,-0.0001169710885733366,0.001410225871950388
1669498387604187100,3.289187255859375,0.00006760121323168278,-0.0008683004416525364,0.0017922315746545792
1669498387614119200,3.299119140625,0.001758442260324955,-0.000974560622125864,-0.0009987610392272472
1669498387624051200,3.30905126953125,0.0006765669677406549,-0.002697870833799243,0.0007601892575621605
1669498387633983200,3.318983154296875,-0.00018869410268962383,-0.001049373997375369,-0.0007194629870355129
1669498387643915300,3.328915283203125,0.0003913335967808962,0.0006941880565136671,-0.001490308903157711
1669498387653847000,3.338846923828125,0.00008560274727642536,-0.001144724665209651,-0.001513744704425335
1669498387663779000,3.348779052734375,0.0011627271305769682,0.0009355498477816582,0.0029463195241987705
1669498387673711000,3.358711181640625,-0.001610955223441124,0.0005520544946193695,0.003399323206394911
1669498387683643100,3.36864306640625,-0.0009755834471434355,-0.00037195533514022827,-0.0016752630472183228
1669498387693575200,3.3785751953125,-0.000806472497060895,-0.0012643805239349604,0.0013064122758805752
1669498387703507200,3.388507080078125,-0.001290300628170371,-0.000024253735318779945,0.00004034489393234253
1669498387713439000,3.39843896484375,-0.00012117321603000164,0.0008782916702330112,0.002005225047469139
1669498387723371000,3.40837109375,-0.0017396537587046623,0.00024405005387961864,-0.001148007344454527
1669498387733303000,3.418302978515625,0.0014819720527157187,-0.0005703445058315992,-0.002109142020344734
1669498387743235000,3.428235107421875,0.0016570060979574919,-0.0025815358385443687,0.0002675894647836685
1669498387753167000,3.4381669921875,-0.0009430381469428539,-0.001071257283911109,-0.0021854485385119915
1669498387763099000,3.448098876953125,-0.0014165721368044615,0.0001405270304530859,0.0001057703047990799
1669498387773031000,3.458031005859375,-0.0033004924189299345,-0.0005260619800537825,-0.0017786822281777859
1669498387782964000,3.4679638671875,-0.00017500203102827072,-0.0027285299729555845,-0.0010504680685698986
1669498387792896000,3.47789599609375,-0.002418715041130781,0.0008877762593328953,-0.0015444844029843807
1669498387802828000,3.487828125,-0.0006686176639050245,-0.003655018750578165,-0.004576275125145912
1669498387812760000,3.497760009765625,-0.002105659106746316,0.0011298826429992914,-0.001665439922362566
1669498387822692000,3.507692138671875,0.00022621313109993935,-0.000004152767360210419,0.0012774006463587284
1669498387832623900,3.517623779296875,0.0005721577908843756,0.0008382047526538372,-0.0007545915432274342
1669498387842556000,3.527555908203125,0.0028591188602149487,-0.002573997713625431,-0.0006875889375805855
1669498387852488000,3.537488037109375,-0.0027561564929783344,0.0035065317060798407,-0.0016479245387017727
1669498387862420000,3.547419921875,0.0014475493226200342,-0.0007986410055309534,-0.0022045327350497246
1669498387872352000,3.55735205078125,-0.0005482237320393324,-0.003097215434536338,-0.0022292998619377613
1669498387882284300,3.5672841796875,0.002666005166247487,0.00023552658967673779,-0.0015919068828225136
1669498387892216000,3.577216064453125,0.0005703638307750225,0.0009764181450009346,-0.002590326126664877
1669498387902148000,3.587148193359375,0.0033081627916544676,0.0004393588751554489,0.0010865754447877407
1669498387912080100,3.597080078125,0.0016351649537682533,-0.0020392450969666243,-0.0009768414311110973
1669498387922012200,3.60701220703125,0.000163219403475523,0.0002157767303287983,0.0006247586570680141
1669498387931944200,3.616944091796875,0.00024045119062066078,0.0001755629200488329,-0.00016620010137557983
1669498387941876200,3.626876220703125,-0.00002164021134376526,0.000014955643564462662,-0.0015444010496139526
1669498387951808000,3.63680810546875,-0.000050934962928295135,-0.00112913828343153,0.0006777406670153141
1669498387961740000,3.646739990234375,-0.00012804614380002022,-0.0022347455378621817,0.0011610621586441994
1669498387971672000,3.656672119140625,-0.0006111438851803541,0.0010092509910464287,-0.0011833184398710728
1669498387981604000,3.66660400390625,0.002420214470475912,0.0033000921830534935,0.0002995086833834648
1669498387991536000,3.6765361328125,-0.0008884966373443604,-0.0005119564011693001,-0.0006001070141792297
1669498388001467600,3.686467529296875,-0.0001715598627924919,0.0023003406822681427,0.003637832123786211
1669498388011399700,3.696399658203125,0.0015600273618474603,0.0006433217786252499,-0.00022295257076621056
1669498388021331700,3.706331787109375,0.0011161614675074816,-0.0005355025641620159,0.001981486100703478
1669498388031263700,3.716263671875,-0.0012974613346159458,-0.0019624242559075356,0.0008240756578743458
1669498388041195500,3.726195556640625,-0.0008484472054988146,0.0019343877211213112,0.0016458523459732533
1669498388051127600,3.73612744140625,-0.0006641566287726164,-0.00031784758903086185,0.0007861838676035404
1669498388061059800,3.746059814453125,-0.0006057326681911945,-0.000891989329829812,-0.0010100179351866245
1669498388070992000,3.755991943359375,0.00046139582991600037,0.00004411162808537483,-0.0026659714058041573
1669498388080924000,3.765923828125,0.00062778708525002,-0.00005867425352334976,0.00237154308706522
1669498388090856000,3.77585595703125,0.0001524128019809723,-0.0011897189542651176,0.0002050613984465599
1669498388100787700,3.78578759765625,-0.002021556021645665,-0.001968852011486888,-0.0009607123211026192
1669498388110719700,3.7957197265625,-0.0010055599268525839,-0.001513717812485993,-0.0019040042534470558
1669498388120651800,3.80565185546875,0.0000683965627104044,0.0007670789491385221,0.0011394177563488483
1669498388130583800,3.815583740234375,-0.00033560488373041153,-0.0005402667447924614,0.002556485589593649
1669498388140515800,3.825515869140625,-0.0010157802607864141,-0.0028489602264016867,-0.00011795898899435997
1669498388150447900,3.83544775390625,0.0015427186153829098,0.0030842963606119156,0.0006474331021308899
1669498388160379600,3.845379638671875,-0.0030788397416472435,-0.0025927918031811714,0.0008018137887120247
1669498388170311700,3.855311767578125,-0.0002694712020456791,-0.0018247360130771995,-6.379559636116028e-8
1669498388180243700,3.86524365234375,-0.003440313274040818,-0.00049760309047997,0.0038466118276119232
1669498388190175700,3.87517578125,0.0012151584960520267,0.0012891115620732307,0.0012239310890436172
1669498388200107800,3.885107666015625,-0.001334052300080657,-0.0013181903632357717,-0.002875830978155136
1669498388210039800,3.895039794921875,-0.0007212588097900152,0.0019780038855969906,-0.00021080579608678818
1669498388219971600,3.9049716796875,0.0012449643108993769,-0.000025218119844794273,0.00008585629984736443
1669498388229903600,3.914903564453125,0.0012694655451923609,0.0009678746573626995,0.0004104957915842533
1669498388239835600,3.924835693359375,0.0011983464937657118,0.0007147407159209251,-0.00034114299342036247
1669498388249767700,3.934767578125,0.0011440180242061615,0.00009688711725175381,0.0024559753946959972
1669498388259699700,3.94469970703125,-0.0007575508207082748,-0.00024027610197663307,0.0017117192037403584
1669498388269631700,3.9546318359375,-0.0008933721110224724,-0.0004402794875204563,0.0008919979445636272
1669498388279563800,3.964563720703125,0.0001217543613165617,0.0008809100836515427,0.0038729747757315636
1669498388289495800,3.974495849609375,-0.00046254321932792664,0.0009807785972952843,0.0015906458720564842
1669498388299427800,3.984427734375,-0.0006730740424245596,0.000688458327203989,-0.0023115486837923527
1669498388309359900,3.99435986328125,0.00007314374670386314,-0.0003030367661267519,-0.0020692013204097748
1669498388319292000,4.0042919921875,0.0008461559191346169,-0.001692925812676549,0.004901661537587643
1669498388329223700,4.0142236328125,-0.0018865135498344898,-0.0003152727149426937,0.0003873375244438648
1669498388339155700,4.02415576171875,-0.0010842862538993359,0.001334385946393013,-0.004356368910521269
1669498388349087700,4.034087646484375,-0.00046563404612243176,-0.0025674114003777504,-0.0014189020730555058
1669498388359019800,4.044019775390625,-0.0001564151607453823,0.00019578821957111359,0.006139242090284824
1669498388368951800,4.053951904296875,-0.0012496428098529577,-0.00015495019033551216,0.002695508301258087
1669498388378883800,4.0638837890625,0.000038204481825232506,0.0031887830700725317,0.0009892089292407036
1669498388388815600,4.073815673828125,-0.001037979032844305,-0.0024110458325594664,0.0022992175072431564
1669498388398747600,4.08374755859375,-0.001118804793804884,0.002437300980091095,0.0032062437385320663
1669498388408679700,4.0936796875,0.00029320293106138706,0.00026282970793545246,0.002024599350988865
1669498388418611700,4.10361181640625,0.001051806379109621,0.0008167428895831108,-0.00032396288588643074
1669498388428543700,4.113543701171875,-0.000015854835510253906,0.0006140766199678183,0.000057135242968797684
1669498388438475800,4.123475830078125,-0.00003679003566503525,0.002488798229023814,0.0015887231566011906
1669498388448407600,4.133407470703125,-0.0018429458141326904,0.0009601435158401728,0.00037272414192557335
1669498388458339600,4.143339599609375,-0.0006334718782454729,0.0010402356274425983,0.002910084556788206
1669498388468271600,4.153271728515625,0.000975343631580472,0.001314540859311819,0.002718870062381029
1669498388478203600,4.16320361328125,0.0019165162229910493,-0.0015993447741493583,0.0031008273363113403
1669498388488136000,4.173135986328125,0.0005010461900383234,-0.0002813462633639574,0.00008399877697229385
1669498388498068000,4.18306787109375,-0.0029600211419165134,-0.00002898741513490677,0.0002722339704632759
1669498388507999700,4.192999755859375,-0.0010148482397198677,0.0006304110866039991,0.002706363331526518
1669498388517931800,4.202931884765625,0.0010948730632662773,-0.0021201088093221188,0.0010234047658741474
1669498388527863800,4.21286376953125,-0.0005112793296575546,0.00014198035933077335,-0.0008123121224343777
1669498388537795800,4.2227958984375,0.0021757427603006363,-0.0008240209426730871,-0.0002885931171476841
1669498388547728000,4.232727783203125,-0.0002485327422618866,0.0033251841086894274,0.0036715269088745117
1669498388557659600,4.24265966796875,-0.0002734593581408262,-0.0005191781092435122,0.0023193927481770515
1669498388567591700,4.252591796875,0.00027621700428426266,0.0015604845248162746,0.0001531778834760189
1669498388577523700,4.262523681640625,0.0010410037357360125,0.001045766519382596,-0.00020502228289842606
1669498388587455700,4.272455810546875,-0.0007925827521830797,0.0009682683739811182,0.0009217611514031887
1669498388597387800,4.2823876953125,0.00011488376185297966,0.000307195819914341,0.002086480613797903
1669498388607319800,4.29231982421875,-0.0022185780107975006,0.0010693927761167288,0.0009208149276673794
1669498388617251600,4.30225146484375,-0.00015027495101094246,0.0004420613404363394,-0.00190762709826231
1669498388627183600,4.31218359375,0.0008601283188909292,0.0015147826634347439,0.00013182125985622406
1669498388637116700,4.32211669921875,0.00046444241888821125,0.0004256288520991802,0.0005116825923323631
1669498388647048700,4.332048583984375,0.00030864751897752285,-0.0003701236564666033,0.0022123772650957108
1669498388656980700,4.341980712890625,-0.0012219466734677553,0.0013101724907755852,0.00010418472811579704
1669498388666912800,4.351912841796875,-0.0007849216926842928,-0.0011955955997109413,0.002063739113509655
1669498388676844800,4.3618447265625,0.000056746648624539375,-0.0029741947073489428,0.0012371926568448544
1669498388686776600,4.371776611328125,-0.0007547186687588692,-0.0016727078473195434,0.0008169454522430897
1669498388696708600,4.38170849609375,-0.0015049802605062723,-0.0014639284927397966,-0.00213474128395319
1669498388706640600,4.391640625,-0.0022767644841223955,0.0009717985522001982,0.00004319194704294205
1669498388716572700,4.40157275390625,-0.001692602876573801,0.0013715501409024,0.00010217772796750069
1669498388726504700,4.411504638671875,0.0007034430745989084,-0.0002119655255228281,0.00003133760765194893
1669498388736436700,4.421436767578125,0.000048294663429260254,-0.0000031923409551382065,0.0009240093640983105
1669498388746368800,4.43136865234375,-0.0011543887667357922,-0.0021507656201720238,-0.0007910663262009621
1669498388756300800,4.44130078125,-0.0010977666825056076,0.0008762446232140064,-0.0005470006726682186
1669498388766232800,4.45123291015625,-0.0007728608325123787,-0.0016910424456000328,0.003803006839007139
1669498388776164900,4.461164794921875,-0.002147968392819166,0.0024250794667750597,0.00127090560272336
1669498388786097000,4.471096923828125,-0.00006404472514986992,-0.0018045528559014201,-0.0025736340321600437
1669498388796029000,4.48102880859375,-0.003089087549597025,0.001977161504328251,0.0014141472056508064
1669498388805960700,4.490960693359375,-0.0004837170708924532,-0.00009637582115828991,0.001056484878063202
1669498388815892700,4.500892822265625,0.0021145923528820276,-0.00032159360125660896,0.000007030554115772247
1669498388825824800,4.51082470703125,0.0000961825717240572,-0.00048111705109477043,-0.0011799400672316551
1669498388835756800,4.5207568359375,0.00047039263881742954,0.0019887255039066076,-0.0015298682264983654
1669498388845688800,4.530688720703125,0.0016219434328377247,-0.002581791253760457,-0.0027669062837958336
1669498388855620600,4.54062060546875,-0.00009193248115479946,-0.0007056128233671188,-0.00043094437569379807
1669498388865552600,4.550552734375,0.0016923854127526283,-0.0009207963012158871,-0.0016706460155546665
1669498388875484700,4.560484619140625,-0.0010451208800077438,0.0005896666552871466,0.0009616836905479431
1669498388885416700,4.570416748046875,-0.00019770325161516666,-0.0003336512017995119,-0.0007118461653590202
1669498388895348700,4.5803486328125,-0.0010609026066958904,0.00088534876704216,-0.0016263388097286224
1669498388905280800,4.59028076171875,-0.00020096800290048122,0.0019034752622246742,0.0007465374656021595
1669498388915212500,4.600212646484375,0.00030340999364852905,0.001771600916981697,-0.0009988616220653057
1669498388925144600,4.61014453125,-0.00013547902926802635,-0.0005101952701807022,0.00022352952510118484
1669498388935076600,4.62007666015625,-0.0012568659149110317,-0.002064240165054798,-0.0032621570862829685
1669498388945008600,4.630008544921875,-0.002023323904722929,-0.0004879152402281761,0.0018708198331296444
1669498388954940700,4.639940673828125,0.0004957118071615696,-0.0009164516814053059,0.0015248004347085953
1669498388964873000,4.649873046875,-0.0007996498607099056,0.0011834509205073118,0.00036685820668935776
1669498388974804700,4.6598046875,0.0007333452813327312,-0.0020538908429443836,0.0015351716428995132
1669498388984736800,4.66973681640625,-0.0022174371406435966,0.0008715912699699402,-0.0011594146490097046
1669498388994668800,4.679668701171875,-0.0017001910600811243,-0.00020835641771554947,-0.001521604135632515
1669498389004601600,4.6896015625,-0.0006088276859372854,-0.00028319121338427067,-0.0013916422612965107
1669498389014533400,4.699533447265625,-0.00021746056154370308,-0.0009978918824344873,-0.0011999309062957764
1669498389024465400,4.70946533203125,-0.0009343835990875959,0.0008612608071416616,0.0007835915312170982
1669498389034397400,4.7193974609375,-0.0011354601010680199,-0.0011077679228037596,0.003851525951176882
1669498389044329500,4.72932958984375,0.0005710932891815901,-0.0004307923372834921,0.001699692104011774
1669498389054261500,4.739261474609375,-0.001920121256262064,0.00013790186494588852,0.00384248374029994
1669498389064193300,4.749193359375,-0.001661262009292841,-0.004365236964076757,0.0008126054890453815
1669498389074125300,4.759125244140625,-0.0019137209746986628,0.000167816411703825,-0.0009021204896271229
1669498389084057300,4.769057373046875,0.0017358750337734818,0.0021737092174589634,-0.00006482237949967384
1669498389093989400,4.7789892578125,0.002705615246668458,-0.0008603723254054785,0.0015952307730913162
1669498389103921400,4.78892138671875,-0.0021567842923104763,0.001593198161572218,-0.004236559383571148
1669498389113853400,4.798853515625,0.0014782380312681198,0.0018597249872982502,-0.002205364406108856
1669498389123785200,4.80878515625,0.0003711618483066559,-0.0014077071100473404,-0.0006905584596097469
1669498389133717200,4.81871728515625,0.0003002355806529522,0.0015267764683812857,-0.00019285175949335098
1669498389143649300,4.828649169921875,-0.00030430196784436703,-0.0011592879891395569,-0.003945778589695692
1669498389153581300,4.838581298828125,0.000012713717296719551,0.0015083199832588434,-0.0005272505804896355
1669498389163513300,4.848513427734375,-0.00022803619503974915,-0.0004637506790459156,-0.003309987485408783
1669498389173445400,4.8584453125,-0.003861840348690748,0.001992048230022192,-0.0010283063165843487
1669498389183377200,4.868377197265625,0.0018272042507305741,-0.0017219959991052747,-0.0002852841280400753
1669498389193309200,4.87830908203125,-0.00024200906045734882,-0.0017252942780032754,0.0007630838081240654
1669498389203241500,4.888241455078125,0.0009747892618179321,-0.0025783046148717403,-0.0019541392102837563
1669498389213173500,4.898173583984375,-0.0007188140880316496,0.001664243172854185,-0.0018247519619762897
1669498389223105500,4.90810546875,0.0007323422469198704,-0.0004985101986676455,0.0011460045352578163
1669498389233037600,4.91803759765625,0.0010544273536652327,-0.0004632677882909775,0.0012464486062526703
1669498389242969300,4.92796923828125,0.0002453590277582407,-0.0003727204166352749,0.002592676319181919
1669498389252901400,4.9379013671875,0.0005996003746986389,-0.0009693833999335766,0.0009700208902359009
1669498389262833400,4.94783349609375,-0.0006717925425618887,0.0007811123505234718,0.0007596313953399658
1669498389272765400,4.957765380859375,0.0016395739512518048,-0.0002628990914672613,0.0029318169690668583
1669498389282697500,4.967697509765625,0.000322108156979084,0.002516908338293433,0.0010103466920554638
1669498389292629500,4.97762939453125,-0.0006034767720848322,0.0002948679029941559,-0.0012223399244248867
1669498389302561300,4.987561279296875,-0.0016184074338525534,-0.0010066188406199217,0.0000799461267888546
1669498389312493300,4.997493408203125,-0.0013018492609262466,-0.000017464859411120415,-0.0005727438256144524
1669498389322425300,5.00742529296875,-0.0005654850974678993,0.0013934778980910778,0.002436893992125988
1669498389332357400,5.017357421875,-0.000005397247150540352,-0.0019152985187247396,0.002937604207545519
1669498389342289400,5.027289306640625,-0.00009967316873371601,-0.0006620148196816444,0.0006744503043591976
1669498389352221200,5.03722119140625,-0.0012110418174415827,0.00008178967982530594,-0.0006086742505431175
1669498389362153200,5.0471533203125,0.002813527127727866,0.0003853898961097002,0.0003977343440055847
1669498389372085200,5.057085205078125,0.0012000005226582289,0.002372570103034377,0.0034890975803136826
1669498389382017300,5.067017333984375,-0.0023284214548766613,0.0007722766604274511,-0.0006425301544368267
1669498389391949300,5.07694921875,0.00021678884513676167,-0.001111458521336317,0.0027937060222029686
1669498389401881300,5.08688134765625,-0.0007443458307534456,0.0028595812618732452,0.000533481128513813
1669498389411813400,5.0968134765625,-0.0007864937651902437,0.0015333893243223429,0.0012106825597584248
1669498389421745400,5.106745361328125,0.002146179089322686,-0.0006570608820766211,-0.0012420890852808952
1669498389431677400,5.116677490234375,-0.0016630401369184256,0.0012346731964498758,-0.0015091346576809883
1669498389441609500,5.126609375,0.0010461935307830572,0.003820069832727313,0.0001731840893626213
1669498389451541500,5.13654150390625,-0.0007443646900355816,0.001140529289841652,-0.0018001473508775234
1669498389461473500,5.1464736328125,0.00040478911250829697,0.0018912744708359241,0.0004491587169468403
1669498389471405300,5.1564052734375,0.0016225434374064207,0.0011598640121519566,0.0014253053814172745
1669498389481337300,5.16633740234375,-0.00009306496940553188,0.001276776660233736,0.0021102698519825935
1669498389491269400,5.176269287109375,-0.001077054999768734,0.0015319944359362125,0.00014200527220964432
1669498389501201400,5.186201416015625,0.0017381724901497364,-0.00004672748036682606,0.0009172512218356133
1669498389511133400,5.196133544921875,-0.0007359478622674942,0.0010610658209770918,0.0006792526692152023
1669498389521065500,5.2060654296875,0.0006177371833473444,-0.0015608161920681596,0.0007591471076011658
1669498389530997200,5.215997314453125,0.0006941328756511211,0.0010544306132942438,0.0008112317882478237
1669498389540929300,5.22592919921875,0.00022435118444263935,-0.000884883338585496,0.0010767490603029728
1669498389550861300,5.235861328125,0.001468505011871457,0.0002091976348310709,0.0016518640331923962
1669498389560793300,5.24579345703125,-0.0011762804351747036,0.0015535610727965832,0.0043725487776100636
1669498389570725400,5.255725341796875,-0.0008803508244454861,0.0012469834182411432,0.0018907655030488968
1669498389580657200,5.2656572265625,0.0026645828038454056,-0.003088110126554966,-0.00027758069336414337
1669498389590589200,5.275589111328125,-0.0006655333563685417,0.0014418140053749084,-0.0015528309158980846
1669498389600522200,5.285522216796875,-0.001172599382698536,-0.0033026072196662426,0.0012304391711950302
1669498389610454300,5.295454345703125,-0.0006274022161960602,0.0025736114475876093,0.0008781049400568008
1669498389620386300,5.30538623046875,-0.002284421119838953,-0.0014174019452184439,0.0006631873548030853
1669498389630318300,5.315318359375,0.00012648594565689564,0.000759392511099577,-0.00007792282849550247
1669498389640250400,5.32525048828125,0.0003547188825905323,-0.0005293113645166159,-0.0013359999284148216
1669498389650182100,5.33518212890625,0.00028013577684760094,-0.0009357973467558622,-0.0019795303232967854
1669498389660114200,5.3451142578125,0.0036082882434129715,0.0016019288450479507,0.0025835298001766205
1669498389670046200,5.355046142578125,-0.001695697195827961,0.003259355900809169,0.002583786379545927
1669498389679978500,5.364978515625,0.0005032750777900219,0.00036503258161246777,0.002539311069995165
1669498389689910500,5.37491064453125,-0.00048814364708960056,-0.0008460583630949259,0.0006998563185334206
1669498389699842600,5.384842529296875,-0.001815995667129755,0.0012138965539634228,0.0027941660955548286
1669498389709774300,5.3947744140625,-0.0015566293150186539,0.0025676835794001818,0.0020530042238533497
1669498389719706400,5.404706298828125,0.0005627144128084183,0.0023935127537697554,0.0011174357496201992
1669498389729638400,5.414638427734375,-0.006232442334294319,0.054587025195360184,0.039115048944950104
1669498389739570400,5.4245703125,-0.0021940243896096945,0.08509460091590881,0.07886113226413727
1669498389749502500,5.43450244140625,0.002110167406499386,0.029067307710647583,0.0332300178706646
1669498389759434500,5.4444345703125,0.0022185579873621464,0.006506873294711113,0.0033775786869227886
1669498389769366300,5.4543662109375,0.0022446452639997005,-0.03215258941054344,-0.025437159463763237
1669498389779298300,5.46429833984375,-0.00019667460583150387,-0.028786085546016693,-0.028248125687241554
1669498389789230300,5.474230224609375,0.00017245765775442123,-0.04008271172642708,-0.0328294076025486
1669498389799162400,5.484162353515625,0.0014041697140783072,-0.029181595891714096,-0.0270072054117918
1669498389809094400,5.494094482421875,0.00004778662696480751,-0.003419568296521902,-0.003784715663641691
