time,seconds_elapsed,z,y,x
1669498384336554200,0.02155419921875,0.22754443478286265,-0.04718932893723249,0.02385243862196803
1669498384346486000,0.031486083984375,0.285651755836606,-0.03241108119599521,0.0314547120529227
1669498384356418000,0.04141796875,0.08815466879308223,-0.012249277252890168,0.008168583810515702
1669498384366350000,0.05135009765625,-0.10489069953858851,-0.027303675054386255,0.011008392080012709
1669498384376282000,0.0612822265625,-0.13912731566131115,-0.04751454230360686,0.03810226030861959
1669498384386214100,0.071214111328125,-0.02478197455704212,-0.045080264361388976,0.0499221879672259
1669498384396146200,0.081146240234375,0.0898380918353796,-0.024720563226006922,0.028060375173203644
1669498384406078200,0.091078125,0.13281097212135792,-0.020616379310190676,0.00612312252279371
1669498384416010200,0.10101025390625,0.08751227923631667,-0.026405885964445767,0.017137743414193392
1669498384425942300,0.1109423828125,-0.018079262048006056,-0.03684460666403174,0.03406352457813919
1669498384435874300,0.120874267578125,-0.06520224775075913,-0.025057759291119874,0.04475916091455146
1669498384445806300,0.130806396484375,0.003355740168690681,-0.020428674718365073,0.05184027828192338
1669498384455738400,0.14073828125,0.09235504309237003,-0.027738413209840655,0.051009161220025266
1669498384465670100,0.150670166015625,0.11311258443892001,-0.03501019431110471,0.0470911840586923
1669498384475602200,0.160602294921875,0.04380348589122295,-0.02390698182079941,0.030181732975039628
1669498384485534200,0.1705341796875,-0.011745967373251915,-0.015415011274814604,0.026528014506772158
1669498384495466200,0.18046630859375,-0.010272387689352035,-0.031041034951806067,0.036360659071989355
1669498384505399300,0.1903994140625,0.03251461463570594,-0.031795360450446605,0.02570435009896755
1669498384515331300,0.200331298828125,0.046133390143513676,-0.01659212876278907,0.030587226769700646
1669498384525263400,0.210263427734375,0.04911912795603275,-0.013148308451846242,0.03751861520176753
1669498384535195100,0.220195068359375,0.036974516654014584,-0.028184403411671517,0.03218229567511007
1669498384545127200,0.230127197265625,0.024681436792016027,-0.030363574081659316,0.026579288036283105
1669498384555059200,0.24005908203125,0.005660509979724884,-0.03005037994664162,0.0277826176777482
1669498384564991200,0.2499912109375,0.02091302416920662,-0.027368191657960412,0.02394018997065723
1669498384574923300,0.25992333984375,0.05486556265354156,-0.033498620704375204,0.014596954623889177
1669498384584855000,0.26985498046875,0.052016602963209146,-0.028507607484050092,0.02123242884930223
1669498384594787000,0.279787109375,-0.0030611411362886426,-0.029345190819352863,0.017839078350272028
1669498384604719000,0.289718994140625,-0.007550853770971298,-0.03481536585874855,0.04579120737602934
1669498384614651100,0.299651123046875,0.008767828345298767,-0.04887012163102627,0.023808709078095854
1669498384624583200,0.309583251953125,0.025824761608242985,-0.03112246615756303,0.04221099253538996
1669498384634515200,0.31951513671875,0.03362286813855171,-0.0438065180985257,0.04167140576597303
1669498384644447000,0.329447021484375,0.05293196424245834,-0.03460508410893381,0.04562270067501813
1669498384654379000,0.33937890625,0.036625557085871695,0.010295330173522233,0.06237749091992154
1669498384664311300,0.349311279296875,0.045455929273366925,-0.013069105735793708,0.05027136673107743
1669498384674243300,0.359243408203125,0.017654899156093598,-0.07240889119394123,0.02248734254753217
1669498384684175400,0.36917529296875,-0.07882394586801529,-0.05955704493802041,0.04404219001792371
1669498384694107400,0.379107421875,-0.035683892321586606,-0.027607662969641386,0.06414316715188324
1669498384704039200,0.3890390625,0.10261807843148708,-0.024899390391632914,0.006007460253871977
1669498384713971200,0.39897119140625,0.13766367284953593,-0.03427281994726509,-0.029761553067900237
1669498384723903200,0.4089033203125,0.06285363879799842,-0.026866891072317958,0.009490498330350965
1669498384733835300,0.418835205078125,-0.014966682985424995,-0.016819471245259045,0.03794809266021475
1669498384743767300,0.428767333984375,-0.03517652732133865,-0.04671108043361455,0.02646841154033318
1669498384753699300,0.43869921875,-0.00749240158200264,-0.04820303602442145,0.021904464625660328
1669498384763631000,0.448631103515625,0.017355039426684378,-0.022164193274080753,0.04073936734655872
1669498384773563100,0.458563232421875,0.061952306044101714,0.0052418096436187625,0.03885514276884496
1669498384783495200,0.4684951171875,0.0640484015405178,-0.005965045884251594,0.01495747676566243
1669498384793427200,0.47842724609375,0.03171674225628376,-0.011662234612554312,0.01908091337122023
1669498384803359200,0.488359130859375,-0.0033212533771991726,-0.02070489784386009,0.04210997984632849
1669498384813291300,0.498291259765625,0.0014554595053195953,-0.022452727891877293,0.044921511869411915
1669498384823223000,0.50822314453125,0.022553192591667173,-0.030924715095758438,0.029275194323062893
1669498384833155000,0.518155029296875,0.04663140279352665,-0.025328575589135288,0.01290520214466378
1669498384843087000,0.528087158203125,0.05187456414401531,-0.025287366795912383,0.03326261999141425
1669498384853019100,0.53801904296875,0.023901100069284437,-0.027478191371075808,0.03695173856662586
1669498384862951200,0.547951171875,0.007437456524372101,-0.03760349873993545,0.032005733531806614
1669498384872883200,0.55788330078125,0.02675005975961685,-0.04165083790197968,0.030671343122888356
1669498384882815200,0.567815185546875,0.025558219626545906,-0.03031790830902755,0.03795656822761521
1669498384892747300,0.577747314453125,0.036034020933508874,-0.02495451811235398,0.032857272327225656
1669498384902679300,0.58767919921875,0.03439385251104832,-0.026843985120765863,0.021658289578557012
1669498384912611300,0.597611328125,0.022416998991370198,-0.021605536478012798,0.04046878851056099
1669498384922543400,0.60754345703125,0.02120703867971897,-0.017539090756699443,0.03886352700470015
1669498384932475100,0.61747509765625,0.02958089927136898,-0.009238697260059416,0.033568489336501806
1669498384942407200,0.6274072265625,0.048588382080197334,-0.018414631482213735,0.025374752818420526
1669498384952339200,0.637339111328125,0.02553893040418625,-0.02555379917975515,0.03081632281783968
1669498384962271200,0.647271240234375,0.011918401330709457,-0.023297471620328723,0.028023495495226234
1669498384972203300,0.657203369140625,0.023877719193696974,-0.026151874670758843,0.01817866730187088
1669498384982135300,0.66713525390625,0.048562663117051125,-0.021014256053976714,0.025429168153088537
1669498384992067000,0.677067138671875,0.04182078764140606,-0.022850093179009854,0.02714490429610014
1669498385001999600,0.68699951171875,0.028951369196176528,-0.030916787517629562,0.022517025299742817
1669498385011931600,0.696931640625,0.027304186511039732,-0.027926592725701627,0.03055445701126009
1669498385021863400,0.706863525390625,0.003515314644575119,-0.03424863535407931,0.03375434903111309
1669498385031795500,0.71679541015625,0.015336100819706915,-0.02420611089784652,0.033762167011387643
1669498385041727500,0.7267275390625,0.04825988077819347,-0.030075697050988674,0.031266696933843194
1669498385051659500,0.736659423828125,0.044509588333964345,-0.03251691619064659,0.025608598106913266
1669498385061591600,0.746591552734375,0.023100305080413816,-0.027901714012771844,0.031013270162045956
1669498385071523600,0.756523681640625,0.013367431095242499,-0.028388255420699712,0.0323600268621929
1669498385081456600,0.76645654296875,0.009919336467981339,-0.029259887156076726,0.03066907810056582
1669498385091387400,0.776387451171875,0.034758594170212744,-0.02837283865585923,0.02181267642267048
1669498385101320400,0.786320556640625,0.03221007873117924,-0.028489852631650863,0.027394056751579045
1669498385111252500,0.79625244140625,0.02951367925405502,-0.022889804134890435,0.027262502793781458
1669498385121184500,0.8061845703125,0.02606558462679386,-0.027454993158578873,0.026895660509075967
1669498385131116500,0.816116455078125,0.02696925546824932,-0.030532427842542526,0.03007162366406992
1669498385141048600,0.826048583984375,0.031603929531574246,-0.02332647851910442,0.02278904717415571
1669498385150980400,0.83598046875,0.035787937217950816,-0.027073665690794585,0.02241882562227547
1669498385160912600,0.84591259765625,0.036676410490274425,-0.032668197762221095,0.018387378149107098
1669498385170844700,0.8558447265625,0.02590659467279911,-0.02442234746441245,0.02291818997915834
1669498385180776700,0.865776611328125,0.00900339066684246,-0.01865147244539112,0.03077518708985299
1669498385190708700,0.875708740234375,0.016631401327252385,-0.030482889612391588,0.034511231813021
1669498385200640800,0.885640869140625,0.027708675658702848,-0.023681539034470914,0.02819076008722186
1669498385210572500,0.895572509765625,0.04941138890087604,-0.02732347573339939,0.03349920522626489
1669498385220504600,0.905504638671875,0.030402737048268316,-0.01463606279157102,0.024310703783482313
1669498385230436600,0.9154365234375,0.028761399582028387,-0.017388722500577568,0.02659903391636908
1669498385240368600,0.92536865234375,0.036086043381690976,-0.021882161462306975,0.032753318762406704
1669498385250300700,0.93530078125,0.023659692528843878,-0.028429866072721778,0.03529642737396061
1669498385260232700,0.945232666015625,0.012724457016587257,-0.021942915206216274,0.031242329677566884
1669498385270164500,0.95516455078125,0.03127250562012195,-0.016987155962362884,0.03431422966988757
1669498385280096500,0.965096435546875,0.04576747944056987,-0.03486274866443127,0.022538890071678905
1669498385290028500,0.975028564453125,0.04860182608366012,-0.04494374196752906,0.02541755078053102
1669498385299960600,0.984960693359375,0.021516250759363174,-0.029842801610566672,0.028065562804974614
1669498385309892600,0.994892578125,0.0011526771664619444,-0.022528679204918443,0.04612213809713721
1669498385319824400,1.004824462890625,0.016855273211002348,-0.02146397258285433,0.040739221216086294
1669498385329756400,1.01475634765625,0.039594928285479544,-0.03825242763534188,0.035120833345036954
1669498385339688400,1.0246884765625,0.04978314482271671,-0.02494304687026888,0.02656434619547799
1669498385349620500,1.034620361328125,0.03482756775319576,-0.01866608549263328,0.024135621211212127
1669498385359552500,1.044552490234375,0.0023468553870916366,-0.014697035731188952,0.026373097939696163
1669498385369484500,1.054484619140625,0.015664602121710777,-0.01986793556306511,0.020973339521698654
1669498385379416600,1.06441650390625,0.03003565730154514,-0.025067148173972962,0.015131426826771347
1669498385389348600,1.0743486328125,0.03138298025727272,-0.014624555016867815,0.019879772131331262
1669498385399280600,1.08428076171875,0.035114568001031875,-0.02333214107491076,0.03281367064751684
1669498385409212700,1.094212646484375,0.020594459739327428,-0.0350465442661196,0.030887780618853864
1669498385419144700,1.104144775390625,0.016414543706178664,-0.02589936121441424,0.027687322343420237
1669498385429076700,1.11407666015625,0.015805471897125244,-0.021003077072836458,0.02753499959222972
1669498385439008500,1.124008544921875,0.03436287285089493,-0.03062229808308184,0.023640220643393692
1669498385448940500,1.1339404296875,0.04213526041805744,-0.03139605893455446,0.030040625737607476
1669498385458872600,1.14387255859375,0.03600011866390705,-0.02558645934034139,0.02070559196360409
1669498385468804600,1.1538046875,0.004729951131343842,-0.022405308553576468,0.03155070150699466
1669498385478736600,1.163736572265625,-0.0020078326910734174,-0.031230310446210205,0.045200584539119154
1669498385488668700,1.173668701171875,0.017588263660669325,-0.01948704648669809,0.03643925899984315
1669498385498600400,1.183600341796875,0.050203416061401364,-0.024193287948891518,0.028756065819784998
1669498385508532500,1.193532470703125,0.04453121564388275,-0.032175774602778255,0.02631186927175149
1669498385518464500,1.203464599609375,0.004137830457091331,-0.029377156860195097,0.03445458798864856
1669498385528396500,1.213396484375,-0.002148117944598198,-0.011114902928099036,0.021720139301009474
1669498385538328600,1.22332861328125,0.024481530305743217,-0.022576683065108953,0.022379772253520787
1669498385548260600,1.233260498046875,0.04618599711358547,-0.02026625069826841,0.024250772023480385
1669498385558192400,1.2431923828125,0.04333353029191494,-0.026052104090712964,0.03854669787418097
1669498385568124400,1.25312451171875,0.026278350594639777,-0.03142820763848722,0.03418634724020958
1669498385578056400,1.263056396484375,0.010263035339117049,-0.020806458522193132,0.02656326848324388
1669498385587988700,1.27298876953125,0.013397826233506202,-0.026720577936805785,0.02315857460629195
1669498385597920800,1.282920654296875,0.041076691275835034,-0.025702340804971753,0.02864590170988813
1669498385607852500,1.2928525390625,0.044376317343115805,-0.027743966167792677,0.021844423267804086
1669498385617784600,1.30278466796875,0.032093758875131606,-0.025349618377164006,0.020066636472940443
1669498385627716600,1.312716552734375,0.031787469404935834,-0.020284626605175434,0.03128352020448073
1669498385637648600,1.322648681640625,0.020251345390081405,-0.026200901444256304,0.035722160239052024
1669498385647580700,1.33258056640625,0.011262567770481109,-0.020811682686582206,0.02145069297617301
1669498385657512700,1.3425126953125,0.029966099196672438,-0.03562091008797288,0.019310411278158426
1669498385667444500,1.352444580078125,0.03596095569729805,-0.03120700263585895,0.027862678910326212
1669498385677376500,1.36237646484375,0.023235329636931416,-0.014002514128386974,0.027926775388792156
1669498385687308500,1.37230859375,0.007227613165974617,-0.02406597177479416,0.023179489530157298
1669498385697240600,1.382240478515625,0.009461655828356742,-0.029137868211604655,0.018951843631453812
1669498385707172600,1.392172607421875,0.02338379819691181,-0.023411855247616766,0.02716686039958149
1669498385717104600,1.402104736328125,0.04284019381701946,-0.021785094296000895,0.03054378948677331
1669498385727037700,1.41203759765625,0.030272388666868207,-0.028243038263730702,0.030108649472519754
1669498385736969500,1.421969482421875,0.01935001263618469,-0.026503099261224267,0.031096089607290923
1669498385746901500,1.431901611328125,0.021440262913703916,-0.022104718171805142,0.031189740973804145
1669498385756833500,1.44183349609375,0.033709961900115014,-0.01180770749785006,0.02723141353577375
1669498385766765600,1.451765625,0.033091537740826606,-0.021665815297886727,0.03422843281626701
1669498385776697600,1.461697509765625,0.03068915277421474,-0.02863262210320681,0.031235425012744962
1669498385786629600,1.471629638671875,0.027249825975298878,-0.025853147452510893,0.026255736904032528
1669498385796561400,1.4815615234375,0.022171499797701836,-0.01813767770435661,0.02763531816154718
1669498385806493400,1.491493408203125,0.026047464448213577,-0.021974844714440403,0.011961217559129
1669498385816425500,1.501425537109375,0.03622574411332607,-0.029085553502477705,0.03181835773354396
1669498385826357500,1.511357421875,0.02425648937821388,-0.020004896348342297,0.032688108039088545
1669498385836289500,1.52128955078125,0.021266659912467,-0.015499547753110528,0.036401374674867835
1669498385846221600,1.5312216796875,0.0290483998298645,-0.017977445641346276,0.02206150008458644
1669498385856153600,1.541153564453125,0.027546763095259663,-0.026293402033299208,0.024833978738915175
1669498385866085600,1.551085693359375,0.027384850531816482,-0.014875497570633887,0.026897030482254922
1669498385876017700,1.561017578125,0.02633446469604969,-0.0238697916155681,0.018360362278018145
1669498385885949700,1.57094970703125,0.028871289697289464,-0.02440546939484775,0.016747319324500857
1669498385895881700,1.5808818359375,0.02304360645711422,-0.025162132981047032,0.03573406987255439
1669498385905813500,1.5908134765625,0.03261982857584953,-0.02251571012549102,0.03501821322077885
1669498385915745500,1.60074560546875,0.035460020437836644,-0.022170732612721622,0.018981526383664456
1669498385925677600,1.610677490234375,0.02602642166018486,-0.023481851743906736,0.023175288279075175
1669498385935609600,1.620609619140625,0.009865560454130172,-0.026798282815515995,0.04108984301835298
1669498385945541600,1.630541748046875,0.01555120487511158,-0.0129556354239583,0.030599300799984484
1669498385955473700,1.6404736328125,0.03215162654221058,-0.026912264584004877,0.015527531738579273
1669498385965405400,1.650405517578125,0.05204992071092129,-0.019276399410702288,0.01317550698602572
1669498385975337500,1.66033740234375,0.03679565295577049,-0.01779094662591815,0.03305359861692413
1669498385985269500,1.67026953125,0.01704874995648861,-0.01966116094458848,0.030859504372440276
1669498385995201500,1.680201416015625,0.02181435692310333,-0.016818521397188306,0.02631583306081593
1669498386005133000,1.690133056640625,0.034520693761110305,-0.02677921278886497,0.025084921292681247
1669498386015064800,1.70006494140625,0.031681086421012875,-0.02622881236448884,0.030662812756560742
1669498386024997000,1.7099970703125,0.00983341175019741,-0.02801273663919419,0.018992723631113765
1669498386034929200,1.71992919921875,0.007868249157071114,-0.03297580240666866,0.028576416670251636
1669498386044861200,1.729861083984375,0.03720306471288204,-0.036779505538567896,0.03554382626377046
1669498386054793200,1.739793212890625,0.025979075387120246,-0.023142134928144514,0.03194454139648005
1669498386064725200,1.749725341796875,0.019096330136060713,-0.017750979941710827,0.030026414549164472
1669498386074657000,1.759656982421875,0.026578210324048994,-0.027346418217569588,0.023995865680649875
1669498386084589000,1.769589111328125,0.024488544568419455,-0.016705452944152058,0.03187045324696228
1669498386094521000,1.77952099609375,0.007723872250318527,-0.021856771292723714,0.028108086772449314
1669498386104453000,1.789453125,0.025236148065328597,-0.02129628786575049,0.027449020075518638
1669498386114385200,1.79938525390625,0.04228606706559658,-0.019692871257103978,0.02540987893072888
1669498386124317200,1.809317138671875,0.04810790508687496,-0.022530980759859084,0.024193872470781207
1669498386134249000,1.8192490234375,0.020873861202597616,-0.025178024669922888,0.03055635670740157
1669498386144181000,1.829180908203125,0.012189619487524032,-0.021778554957360027,0.012033880936540663
1669498386154113000,1.839113037109375,0.025658757391571998,-0.024198256384953855,0.018467640311084686
1669498386164045000,1.849045166015625,0.02655658301413059,-0.02695219473559409,0.027934465504903343
1669498386173977000,1.85897705078125,0.023865444234013555,-0.019744126520305872,0.027604758626502007
1669498386183909000,1.8689091796875,0.006665303108096122,-0.01794109568633139,0.016986644505709407
1669498386193841000,1.8788408203125,0.013394319102168083,-0.019243593119643628,0.018094715345464647
1669498386203773000,1.88877294921875,0.033441081830859185,-0.017370383126288653,0.02047368290387094
1669498386213705000,1.898705078125,0.04301204325258732,-0.02013082428295165,0.03211397967925295
1669498386223637000,1.908636962890625,0.029990064594149587,-0.021763941910117865,0.024839513430558145
1669498386233569000,1.918569091796875,0.018018471771478653,-0.01808386515788734,0.02694024856947362
1669498386243501300,1.928501220703125,-0.0029348844081163407,-0.017873583408072588,0.027658479841426012
1669498386253433000,1.93843310546875,0.012330489262938499,-0.0211998052213341,0.03575385228525847
1669498386263365000,1.948365234375,0.03536591241359711,-0.02713796309866011,0.018340890392567963
1669498386273297200,1.958297119140625,0.0409124406248331,-0.029984000179544088,0.02331750976135954
1669498386283229200,1.968229248046875,0.03522854976952076,-0.025528482075408098,0.02902226074161008
1669498386293161200,1.9781611328125,0.012326397609710693,-0.02977032089624554,0.032549393688142296
1669498386303093000,1.988093017578125,-0.012209493231773375,-0.02492448830027133,0.03522467731200159
1669498386313025000,1.99802490234375,0.012940730115771293,-0.02703494111560285,0.03707516401689499
1669498386322957000,2.00795703125,0.03853051392436027,-0.014568769709020853,0.033930399717763064
1669498386332890000,2.01789013671875,0.03958089976012707,-0.024811310249380766,0.02476582713983953
1669498386342822100,2.027822265625,0.02925415153503418,-0.01618168479837477,0.022820958416070788
1669498386352754200,2.037754150390625,0.01682955424785614,-0.015035072046518326,0.027041516986861823
1669498386362686200,2.047686279296875,0.019662147325277327,-0.02180043799560517,0.02734506651069969
1669498386372618000,2.057617919921875,0.03940729675889015,-0.023844291848130524,0.02138297976851463
1669498386382550000,2.067550048828125,0.05078092368841171,-0.021461671027913687,0.01585290950173512
1669498386392482000,2.07748193359375,0.038355741879343985,-0.02303166029099375,0.01837914004372433
1669498386402414000,2.0874140625,0.02713525968492031,-0.024165084767714142,0.02337583408616483
1669498386412346000,2.09734619140625,0.008877718460559845,-0.019347820679098366,0.032645565805304796
1669498386422278100,2.107278076171875,0.021302315747737884,-0.022786526423506436,0.034897893043048675
1669498386432210000,2.1172099609375,0.03401858945786953,-0.02934570227600634,0.02063840847890824
1669498386442142000,2.127141845703125,0.038346389529109,-0.017068915961682796,0.026967264440562574
1669498386452074000,2.137073974609375,0.036837738531827924,-0.01799889028817415,0.02439933191500604
1669498386462006000,2.147006103515625,0.03384206384718418,-0.018861388869024814,0.018228132466785608
1669498386471938000,2.15693798828125,0.014994155514240264,-0.02615666044373065,0.02661496213786304
1669498386481870000,2.1668701171875,0.021885084071755406,-0.02224803563263267,0.029156499846838414
1669498386491801900,2.1768017578125,0.01754851617217064,-0.02529774205945432,0.035735914769768715
1669498386501734100,2.186734130859375,0.037602877685427666,-0.027284093571081757,0.022134492255561054
1669498386511666200,2.196666259765625,0.031627894929051395,-0.02223817182574421,0.029750976874958722
1669498386521598200,2.20659814453125,0.029093408015370366,-0.022122765285149216,0.03137280592313036
1669498386531530200,2.2165302734375,0.022655483922362326,-0.014789061396196485,0.023629954977706074
1669498386541462300,2.226462158203125,0.023843232402205466,-0.02261540764030069,0.017383680999279023
1669498386551394000,2.23639404296875,0.045240240696072576,-0.01924151076041162,0.025590368330478667
1669498386561326000,2.246326171875,0.030728315740823745,-0.022906937932781875,0.02494763171384111
1669498386571258000,2.256258056640625,0.015608488020300864,-0.015780447053723036,0.026560674667358397
1669498386581190100,2.266190185546875,0.017100187882781028,-0.021700777013413608,0.020997651979047804
1669498386591122200,2.2761220703125,0.03145136931836605,-0.0227478018483147,0.01496388824013993
1669498386601054000,2.286053955078125,0.03473521329462528,-0.021345533834956586,0.02033381777545437
1669498386610986000,2.295986083984375,0.034878421157598496,-0.027071656396798788,0.025272461487725377
1669498386620918000,2.30591796875,0.0245563491076231,-0.022491160206124187,0.021078407331369817
1669498386630850000,2.31585009765625,0.01946340988278389,-0.02379533813986927,0.0224726929676719
1669498386640782000,2.325781982421875,0.03351823872029781,-0.01768781504500657,0.03026367563745007
1669498386650714000,2.335714111328125,0.030080665487051007,-0.022489516238309443,0.025444420521147548
1669498386660646000,2.34564599609375,0.03861059342324733,-0.025258615625463426,0.02529368693884462
1669498386670578000,2.355577880859375,0.02515139239132404,-0.029806415122933683,0.025754472851008174
1669498386680510000,2.365510009765625,0.015283493849635123,-0.018083353701233863,0.016717179914563892
1669498386690442000,2.37544189453125,0.030085926184058188,-0.021936412400193513,0.01817431992031634
1669498386700374000,2.3853740234375,0.03532148874998092,-0.02267473661210388,0.020681115109473465
1669498386710306000,2.39530615234375,0.028143559944629668,-0.019547179176099598,0.019899883337598293
1669498386720238000,2.405238037109375,0.007344517543911934,-0.021241963862627743,0.0205814175946638
1669498386730170000,2.415170166015625,0.020807810229063032,-0.015013956193253398,0.02240877915229648
1669498386740102100,2.42510205078125,0.025143793606758117,-0.027564627545513212,0.019932580030802637
1669498386750034200,2.4350341796875,0.034867315241694445,-0.019765899960696696,0.026754681135807184
1669498386759966200,2.44496630859375,0.030085926184058188,-0.008687712313793599,0.021036029494367538
1669498386769898200,2.454898193359375,0.023199673801660537,-0.02047295225150883,0.027290157985687253
1669498386779830000,2.464830078125,0.014373977789282798,-0.023402320234291254,0.023931951865274456
1669498386789762000,2.474761962890625,0.016464228066802023,-0.018680004420131444,0.020354349106829612
1669498386799694000,2.484694091796875,0.03217968359291553,-0.0132533397288993,0.015895214273501188
1669498386809626000,2.494626220703125,0.05057692554891109,-0.020089250163547692,0.032923779958486554
1669498386819558100,2.50455810546875,0.04368658151328563,-0.028806078973971305,0.027655575498286632
1669498386829490200,2.514490234375,0.0189922852396965,-0.01936864427141845,0.03292891279133037
1669498386839422000,2.524421875,0.0007329904496669769,-0.013696370788663625,0.023048629692103712
1669498386849354000,2.53435400390625,0.024357027143239972,-0.020836853660456834,0.02141569472802803
1669498386859286000,2.5442861328125,0.05367839869558811,-0.0202465961497277,0.025180728083662687
1669498386869218000,2.554218017578125,0.042158056771755215,-0.0281012551728636,0.026901249999646097
1669498386879150000,2.564150146484375,0.005802548798918724,-0.026238639638759196,0.019618308183550835
1669498386889081900,2.574081787109375,-0.0007902735948562622,-0.030346549881622192,0.016333477826602757
1669498386899014000,2.584013916015625,0.021947627913951873,-0.031159619830176233,0.022560882707778365
1669498386908946000,2.59394580078125,0.03122399030327797,-0.025563334193080663,0.018015512629412114
1669498386918878000,2.6038779296875,0.026140987950563428,-0.02282638350985944,0.023965269612986593
1669498386928810200,2.613810302734375,0.023152327528595924,-0.02454885992091149,0.024246406375616786
1669498386938742300,2.6237421875,0.010434884774684905,-0.02207344625070691,0.019520893957372755
1669498386948674000,2.633674072265625,0.013130115208029746,-0.026690000135451555,0.03445909976698458
1669498386958606000,2.643606201171875,0.02600537887215614,-0.017094707990065214,0.027990762269403783
1669498386968538000,2.6535380859375,0.03332534649670124,-0.019594013992510734,0.026917269552685318
1669498386978470100,2.66347021484375,0.0407908600717783,-0.009345883961580693,0.03173447884237394
1669498386988402200,2.673402099609375,0.04916179805397987,-0.0111605687007308,0.029284510140679777
1669498386998334200,2.683334228515625,0.024156536135077476,-0.005745923240855336,0.029687611048854885
1669498387008266000,2.693265869140625,0.030574001961946484,-0.013774477526172994,0.02274988420754671
1669498387018198000,2.703197998046875,0.03461187917590141,-0.01802906623072922,0.03150551065839827
1669498387028131000,2.713131103515625,0.03040507513582706,-0.019166691958531736,0.02772743515809998
1669498387038063000,2.72306298828125,0.024548750323057172,-0.01368709150366485,0.02568672311073169
1669498387047995100,2.7329951171875,0.025284663382172584,-0.014416684419848023,0.0326044300773181
1669498387057927200,2.74292724609375,0.02645955238044262,-0.018163981189392504,0.02838363404450938
1669498387067859200,2.752859130859375,0.02585340318083763,-0.01894157796576619,0.024614655166119336
1669498387077791000,2.762791015625,0.02238952646255493,-0.014271978719532489,0.017337869096174834
1669498387087723000,2.772722900390625,0.02401508183777332,-0.02364040330648422,0.009109590987674892
1669498387097655000,2.782655029296875,0.014571546187996864,-0.018478161705099045,0.026500651575811204
1669498387107587000,2.792587158203125,0.003488426637649536,-0.010824541679397224,0.023796397585794327
1669498387117519000,2.80251904296875,0.01992342860996723,-0.012084990069270133,0.020691965297050773
1669498387127451100,2.812451171875,0.03083528324663639,-0.019516053385473787,0.023976905251853167
1669498387137383000,2.8223828125,0.025009353572130202,-0.007521262350305914,0.015680274614877997
1669498387147315000,2.83231494140625,0.02051028858721256,-0.01788235123641789,0.02409777341885492
1669498387157247000,2.8422470703125,0.022900398594141006,-0.02207614966444671,0.01558693377561867
1669498387167179000,2.852178955078125,0.012409399718046188,-0.020217187392152846,0.0251686723196879
1669498387177111000,2.862111083984375,0.035440146693587304,-0.01511281345784664,0.020858846296556294
1669498387187043000,2.87204296875,0.031089550268650054,-0.020486030928790568,0.020347499240934847
1669498387196975000,2.88197509765625,0.02523731710910797,-0.017666845322214065,0.02347750436235219
1669498387206907100,2.8919072265625,0.008934417083859444,-0.020001279619149864,0.03372152447374537
1669498387216839200,2.901839111328125,0.01342705232799053,-0.027517171674594283,0.02554638305827975
1669498387226771200,2.911771240234375,0.03542553364634514,-0.026511501763388512,0.022537008641846476
1669498387236703200,2.921703125,0.030942250752449035,-0.026587416543811557,0.0188545572694391
1669498387246635000,2.931635009765625,0.02182487831711769,-0.012005495092272759,0.02653269068188965
1669498387256567000,2.941567138671875,0.021376550027728078,-0.014545863757468759,0.023256226294487713
1669498387266499000,2.9514990234375,0.032150457498431206,-0.019120112870447337,0.016977146025002002
1669498387276431000,2.96143115234375,0.032443302965164185,-0.010927600195072591,0.017879026768170297
1669498387286363100,2.971363037109375,0.048747956556081766,-0.011295374061539768,0.017390731794573365
1669498387296295200,2.981295166015625,0.04186871843636036,-0.018694653999991713,0.024435225212294607
1669498387306227000,2.99122705078125,0.02406885785162449,-0.020764628674462438,0.018720610425155607
1669498387316159000,3.001158935546875,0.0016273089408874511,-0.012583952567353843,0.02475185341341421
1669498387326091000,3.011091064453125,0.0061129299223423,-0.01760963524226099,0.02056861291201785
1669498387336023000,3.02102294921875,0.04845978726446628,-0.02343834139574319,0.015466029075998812
1669498387345955000,3.030955078125,0.03305354381799697,-0.019007300145737826,0.016618377448897808
1669498387355887000,3.04088720703125,0.025119828209280968,-0.008003091050498188,0.03327898660432547
1669498387365819000,3.05081884765625,0.012243980023264885,-0.027719854639843104,0.022957024152204394
1669498387375751000,3.0607509765625,-0.000029226094484329223,-0.03189768831375986,0.030521212328784166
1669498387385683000,3.070682861328125,0.013570260190963744,-0.01804572510458529,0.03172024938762188
1669498387395615000,3.080614990234375,0.041399931880831714,-0.023980339317955075,0.025297559396363793
1669498387405547300,3.09054736328125,0.0511211154282093,-0.02314962411485612,0.01271408175304532
1669498387415479300,3.100479248046875,0.013117255726456641,-0.02936495496574789,0.015839629895053803
1669498387425411000,3.1104111328125,0.0035381109982728955,-0.014362214286252855,0.022270758921094237
1669498387435343000,3.120343017578125,0.014615969851613043,-0.014609978502243756,0.02089090366894379
1669498387445275100,3.130275146484375,0.0256891525298357,-0.01838409021347761,0.014665690744854508
1669498387455207200,3.140207275390625,0.038569676890969275,-0.019623861141502857,0.01634746981933713
1669498387465139200,3.15013916015625,0.02256196042001247,-0.01771656621545553,0.016085604012757538
1669498387475071000,3.160071044921875,0.018971242451667786,-0.02579655842706561,0.02956707167541608
1669498387485003000,3.1700029296875,0.01522913331389427,-0.011740377882681787,0.01799063391648233
1669498387494935000,3.17993505859375,0.028545711004734037,-0.016346848764829336,0.026235461300984024
1669498387504867000,3.1898671875,0.02899579285979271,-0.021656207219325006,0.030045119249634444
1669498387514799000,3.199799072265625,0.025994857478141783,-0.02005019679479301,0.027605105686374008
1669498387524731100,3.209731201171875,0.026601006677746772,-0.02272741664741188,0.019518829864449798
1669498387534663000,3.219662841796875,0.030637714847922323,-0.024071670863218604,0.02255766783738509
1669498387544595000,3.229594970703125,0.03766951318085193,-0.017130546488426626,0.02995504807969555
1669498387554527000,3.23952685546875,0.018355740901827813,-0.020998473962955174,0.025290070209652182
1669498387564459000,3.249458984375,0.0229834007024765,-0.021885047539137302,0.025686083789914844
1669498387574391000,3.25939111328125,0.020133271968364716,-0.01887333503514528,0.023361641164030878
1669498387584323000,3.269322998046875,0.028064064967632293,-0.02404788812883198,0.026799926783330735
1669498387594254800,3.2792548828125,0.03434592171609401,-0.00957465121615678,0.01703917841054499
1669498387604187100,3.289187255859375,0.035686230409145356,-0.013792963030934333,0.02769685735674575
1669498387614119200,3.299119140625,0.022668927925825116,-0.01795505114644766,0.020291640867851672
1669498387624051200,3.30905126953125,0.021027005937695502,-0.017700857189670204,0.02723053675293922
1669498387633983200,3.318983154296875,0.028359833043813704,-0.018417517559044062,0.022376447785273194
1669498387643915300,3.328915283203125,0.031042788517475127,-0.022446115488000212,0.027557430619746446
1669498387653847000,3.338846923828125,0.024173487269878387,-0.018261048355698584,0.02248894998272881
1669498387663779000,3.348779052734375,0.015641805768013,-0.017065810689143836,0.027807934782095253
1669498387673711000,3.358711181640625,0.020875614768266677,-0.02658197318371385,0.021969803213141858
1669498387683643100,3.36864306640625,0.03417991749942303,-0.017123313030041755,0.018129750126227737
1669498387693575200,3.3785751953125,0.02969020486474037,-0.015777524444274604,0.022438553236052393
1669498387703507200,3.388507080078125,0.03206745539009571,-0.015233151901885867,0.032513719586562365
1669498387713439000,3.39843896484375,0.03280687558054924,-0.01110244530532509,0.030900475703645496
1669498387723371000,3.40837109375,0.01827916853427887,-0.01929020874034613,0.03683777506444603
1669498387733303000,3.418302978515625,0.013349310916662216,-0.024798743028752505,0.03536910901768133
1669498387743235000,3.428235107421875,0.014397943186759948,-0.014155366602540015,0.01868957596607506
1669498387753167000,3.4381669921875,0.03909399302601814,-0.013294511989504099,0.012534962326474487
1669498387763099000,3.448098876953125,0.03580781096220016,-0.02235299384444952,0.01766180382091552
1669498387773031000,3.458031005859375,0.022492986837029456,-0.017481369220092892,0.02347249939367175
1669498387782964000,3.4679638671875,0.0000526069700717926,-0.020207871574535966,0.027761976748518644
1669498387792896000,3.47789599609375,0.01846037032008171,-0.019041640806756913,0.023145715124718844
1669498387802828000,3.487828125,0.03477846791446209,-0.02603467803187668,0.02317916073659435
1669498387812760000,3.497760009765625,0.034952070915699004,-0.015614187108725308,0.032880835865903645
1669498387822692000,3.507692138671875,0.029711832174658774,-0.00945617593564093,0.03374148954953998
1669498387832623900,3.517623779296875,0.030308629024028776,-0.01813807956315577,0.020056699600815773
1669498387842556000,3.527555908203125,0.02732172216773033,-0.018775318020768463,0.020779132123850286
1669498387852488000,3.537488037109375,0.023290859216451642,-0.022665676522813736,0.019001601057313383
1669498387862420000,3.547419921875,0.030472879675030706,-0.015417385894991456,0.018379267907887697
1669498387872352000,3.55735205078125,0.031085458615422248,-0.015487090130336582,0.028893501529097556
1669498387882284300,3.5672841796875,0.0260159002661705,-0.02232226991262287,0.02348168734712526
1669498387892216000,3.577216064453125,0.030052023914456365,-0.02363850361034274,0.012930464450083673
1669498387902148000,3.587148193359375,0.03604454232752323,-0.017174677891097962,0.02057138939099386
1669498387912080100,3.597080078125,0.025721885755658147,-0.020614406548812983,0.024535854308865963
1669498387922012200,3.60701220703125,0.02377601238489151,-0.01693907903693616,0.021977895188052207
1669498387931944200,3.616944091796875,0.029600188493728637,-0.018399032054282723,0.016865575409308074
1669498387941876200,3.626876220703125,0.023167525097727775,-0.012164485046267508,0.028504757939837873
1669498387951808000,3.63680810546875,0.028402503141760824,-0.00945602980516851,0.013042290794104338
1669498387961740000,3.646739990234375,0.03153904760181904,-0.006749218531884252,0.010610314406827092
1669498387971672000,3.656672119140625,0.03617547523081303,-0.019624993652664124,0.016057455630507318
1669498387981604000,3.66660400390625,0.02285363684296608,-0.025510690690390764,0.014337152910232543
1669498387991536000,3.6765361328125,0.015815408769249917,-0.02849288483895361,0.016883622522652148
1669498388001467600,3.686467529296875,0.00997194343805313,-0.022696181258931754,0.015628690558113157
1669498388011399700,3.696399658203125,0.013554478099942207,-0.01573456208538264,0.014154983010049908
1669498388021331700,3.706331787109375,0.03823065419495106,-0.014480397305823862,0.03083292689276859
1669498388031263700,3.716263671875,0.028516484910249707,-0.023686799731478095,0.024058044196665285
1669498388041195500,3.726195556640625,0.01818506051003933,-0.0180572694119066,0.020280096560530363
1669498388051127600,3.73612744140625,0.01159106907248497,-0.018994805990345774,0.01716426609493792
1669498388061059800,3.746059814453125,0.02281213578879833,-0.021920228450372815,0.01902319183461368
1669498388070992000,3.755991943359375,0.013248188629746437,-0.011059811739996076,0.015463033401314169
1669498388080924000,3.765923828125,0.019677929416298864,-0.01849357846993953,0.018685886171646415
1669498388090856000,3.77585595703125,0.02894903110861778,-0.01466799229979515,0.0271709885854274
1669498388100787700,3.78578759765625,0.0449602547109127,-0.021545403788611292,0.03017665494112298
1669498388110719700,3.7957197265625,0.02057049434185028,-0.02423756548203528,0.025429003756307064
1669498388120651800,3.80565185546875,0.0069493807464838025,-0.00710402331892401,0.029321371552348135
1669498388130583800,3.815583740234375,0.030735330003499983,-0.024019721480272708,0.021588822805229575
1669498388140515800,3.825515869140625,0.047343350455164905,-0.02310388527698815,0.016480028424132615
1669498388150447900,3.83544775390625,0.0320808993935585,-0.019074995087087154,0.010803371027205138
1669498388160379600,3.845379638671875,0.02399111644029617,-0.016468538915738462,0.011500486445892601
1669498388170311700,3.855311767578125,0.026085458371043205,-0.014361556699126959,0.023484810885973272
1669498388180243700,3.86524365234375,0.02697568520903587,-0.01930208184123039,0.024702607444208113
1669498388190175700,3.87517578125,0.031896774998307224,-0.019786796618252993,0.022088881281856446
1669498388200107800,3.885107666015625,0.0318979440420866,-0.024332331093400716,0.028315409380197522
1669498388210039800,3.895039794921875,0.01634849273264408,-0.02563892017994076,0.021068872318044305
1669498388219971600,3.9049716796875,0.01618774921298027,-0.024872283188998697,0.02311429707314819
1669498388229903600,3.914903564453125,0.021580548167228698,-0.018073782155290246,0.019997973417211323
1669498388239835600,3.924835693359375,0.012147533911466597,-0.015293211526051162,0.010403905114531516
1669498388249767700,3.934767578125,0.011695698490738869,-0.0022287819653749466,0.01292653719363734
1669498388259699700,3.94469970703125,0.029344167906045913,-0.017356719927117226,0.0226164853525348
1669498388269631700,3.9546318359375,0.04085866461098194,-0.019783033758588135,0.02483383260844275
1669498388279563800,3.964563720703125,0.031875147688388825,-0.021954203785210846,0.035434776398725804
1669498388289495800,3.974495849609375,0.019437106397747993,-0.03350307768378406,0.022342691646143793
1669498388299427800,3.984427734375,0.017637948021292687,-0.02016801448818296,0.030042361036967485
1669498388309359900,3.99435986328125,0.005982581540942192,-0.01985956959351897,0.027485534427314995
1669498388319292000,4.0042919921875,0.03021744360923767,-0.010147153874486683,0.02841713445531204
1669498388329223700,4.0142236328125,0.051448447686433786,-0.015365619175136088,0.018564561346918345
1669498388339155700,4.02415576171875,0.04247136050462723,-0.019153905542194843,0.018368344655074177
1669498388349087700,4.034087646484375,0.014193360525369644,-0.020704349854588508,0.029764621807821093
1669498388359019800,4.044019775390625,-0.00018295535147190093,-0.012255999254621565,0.03040087388474494
1669498388368951800,4.053951904296875,0.03420855907201767,-0.005780300434492528,0.0167280301021412
1669498388378883800,4.0638837890625,0.051260816159844395,-0.01707987574711442,0.00858300983030349
1669498388388815600,4.073815673828125,0.03809270702898502,-0.004349500446394086,0.006959098422899842
1669498388398747600,4.08374755859375,0.011142156261205672,-0.011241196188889442,0.015504388325009494
1669498388408679700,4.0936796875,0.01456687001287937,-0.014751542397402227,0.02362104101888835
1669498388418611700,4.10361181640625,0.025775077247619627,-0.017829707733727992,0.027589835052005945
1669498388428543700,4.113543701171875,0.024866730231046675,-0.014076711875759065,0.01467811183501035
1669498388438475800,4.123475830078125,0.02710428002476692,-0.017152137265726924,0.026549513952527193
1669498388448407600,4.133407470703125,0.03696457978188991,-0.022909531748667358,0.017317867487762123
1669498388458339600,4.143339599609375,0.010608487775921821,-0.018348397845588622,0.013817293754592537
1669498388468271600,4.153271728515625,0.015084756407141684,-0.013840638097561895,0.015047968060709535
1669498388478203600,4.16320361328125,0.03377776643931865,-0.012006919864378868,0.014733586615603417
1669498388488136000,4.173135986328125,0.04379822519421577,-0.015629567340947687,0.027050759739242494
1669498388498068000,4.18306787109375,0.02553133161962032,-0.019548238622024653,0.029745149922370907
1669498388507999700,4.192999755859375,0.0021820202142000195,-0.0170959500990808,0.02967975653596222
1669498388517931800,4.202931884765625,0.010998948398232459,-0.018393004172295332,0.03025638738013804
1669498388527863800,4.21286376953125,0.02476326985657215,-0.014686258608847856,0.020082308966107666
1669498388537795800,4.2227958984375,0.037038229539990426,-0.01100610879138112,0.017870843461714685
1669498388547728000,4.232727783203125,0.04435644359886646,-0.0029144626745954156,0.013379906984325498
1669498388557659600,4.24265966796875,0.03955693436264991,-0.01990655054040253,0.02958427853854373
1669498388567591700,4.252591796875,0.017549100694060325,-0.018094496149756015,0.02520012690387666
1669498388577523700,4.262523681640625,0.008716390419006348,-0.009526355095021427,0.018856128172017633
1669498388587455700,4.272455810546875,0.014090484672784804,-0.014403824938274919,0.015372615171503274
1669498388597387800,4.2823876953125,0.03324175986647606,-0.01751435817424208,0.02000394650027156
1669498388607319800,4.29231982421875,0.0407078579634428,-0.017660890505462885,0.031912301361002024
1669498388617251600,4.30225146484375,0.031573534393310544,-0.019926862676069138,0.03178947869893163
1669498388627183600,4.31218359375,0.02678746916055679,-0.01653258059527725,0.023244864650256932
1669498388637116700,4.32211669921875,0.020500936236977577,-0.011863054414279758,0.019948891844786702
1669498388647048700,4.332048583984375,0.01973345899581909,-0.01597063586357981,0.01496449102833867
1669498388656980700,4.341980712890625,0.040821255210042,-0.014934242020547389,0.022345815184991805
1669498388666912800,4.351912841796875,0.037976971694827076,-0.014082849355600774,0.033760870103444904
1669498388676844800,4.3618447265625,0.014193360525369644,-0.016503500631265343,0.027395773784629998
1669498388686776600,4.371776611328125,0.010454173997044562,-0.01347220664396882,0.022902590551227328
1669498388696708600,4.38170849609375,0.008963643178343772,-0.024549225247092545,0.01888940938711166
1669498388706640600,4.391640625,0.02991290770471096,-0.027390293891914188,0.019787983928341416
1669498388716572700,4.40157275390625,0.04442833979129791,-0.02304861142579466,0.019371822609193623
1669498388726504700,4.411504638671875,0.03080605715215206,-0.01693911556955427,0.016458401114214212
1669498388736436700,4.421436767578125,0.012095511463284492,-0.01381130240522325,0.01890869860947132
1669498388746368800,4.43136865234375,0.015692659172415732,-0.015633951255120335,0.024875242331065237
1669498388756300800,4.44130078125,0.019288053315877914,-0.01957651486843824,0.02715754458196461
1669498388766232800,4.45123291015625,0.028263971453905103,-0.005516900257952511,0.017937679886538535
1669498388776164900,4.461164794921875,0.05039397019743919,-0.012861162073537706,0.02033982739113271
1669498388786097000,4.471096923828125,0.05024257902801037,-0.019482699105143546,0.021872114992327985
1669498388796029000,4.48102880859375,0.01658113244473934,-0.014467647422105073,0.020460567693971095
1669498388805960700,4.490960693359375,0.0040057285100221635,-0.010827573886699974,0.024261238618567584
1669498388815892700,4.500892822265625,0.028547464570403098,-0.016327011553198097,0.03259944337494671
1669498388825824800,4.51082470703125,0.01942424691617489,-0.01996723121907562,0.02127683424660936
1669498388835756800,4.5207568359375,0.027502339431643485,-0.015895196007192133,0.016775668636150657
1669498388845688800,4.530688720703125,0.04022913453578949,-0.018160035666637122,0.02759873074451461
1669498388855620600,4.54062060546875,0.03215630271732807,-0.020637093304656445,0.0260537115259096
1669498388865552600,4.550552734375,0.016301730981469153,-0.016670966152660546,0.01969862514445558
1669498388875484700,4.560484619140625,0.029316695377230643,-0.010926796477474271,0.020298417668510225
1669498388885416700,4.570416748046875,0.04068564613163471,-0.0150524615727365,0.02688594283265993
1669498388895348700,4.5803486328125,0.03080781071782112,-0.012970650329999625,0.018581439416483044
1669498388905280800,4.59028076171875,0.017038813084363936,-0.012241970729269087,0.01772573590259999
1669498388915212500,4.600212646484375,0.012391279539465904,-0.019257950438559053,0.0162662578092888
1669498388925144600,4.61014453125,0.010148469048738479,-0.015390059496648609,0.028851233289949593
1669498388935076600,4.62007666015625,0.017795184409618376,-0.012111476217396557,0.025449370690900832
1669498388945008600,4.630008544921875,0.030216274565458296,-0.01253653322905302,0.018053396954387426
1669498388954940700,4.639940673828125,0.04368658151328563,-0.0185514461370185,0.019139877016842364
1669498388964873000,4.649873046875,0.02678396202921867,-0.012545154926925896,0.022252931003458796
1669498388974804700,4.6598046875,0.001931260323524475,-0.018529526566155252,0.018217647605389357
1669498388984736800,4.66973681640625,0.020934651479125023,-0.0225790211526677,0.026265198852121828
1669498388994668800,4.679668701171875,0.04758183538615703,-0.01984937699306756,0.024663042618799952
1669498389004601600,4.6896015625,0.03352876011431217,-0.02232829779461026,0.01444912538472563
1669498389014533400,4.699533447265625,0.010795534780621528,-0.01550294528659433,0.020434300741553304
1669498389024465400,4.70946533203125,0.011693944925069808,-0.00833166541773826,0.01802879223609343
1669498389034397400,4.7193974609375,0.0260550632327795,-0.016372421597503125,0.02065914073968306
1669498389044329500,4.72932958984375,0.04176350449621677,-0.00983699194677174,0.02358167712287977
1669498389054261500,4.739261474609375,0.044290392625331874,-0.010285502899251878,0.025239746528211978
1669498389064193300,4.749193359375,0.037084991291165346,-0.016892353818379342,0.027277006243169307
1669498389074125300,4.759125244140625,0.0061129299223423,-0.01511058496814221,0.028230617173574862
1669498389084057300,4.769057373046875,-0.004064765220880508,-0.01349536832384765,0.024217308145295827
1669498389093989400,4.7789892578125,0.008942600390315055,-0.004630692007951438,0.02479755571866408
1669498389103921400,4.78892138671875,0.03602233049571514,-0.022449659151956437,0.004572605145163834
1669498389113853400,4.798853515625,0.04919628484547138,-0.022796792089194058,0.022208726535551247
1669498389123785200,4.80878515625,0.034088147562742234,-0.0197544287186116,0.031009251574054358
1669498389133717200,4.81871728515625,0.024360534274578093,-0.01989964587558061,0.032482210203446445
1669498389143649300,4.828649169921875,0.01418868435025215,-0.02283986404594034,0.030912841994874176
1669498389153581300,4.838581298828125,0.015843465819954872,-0.016850231709703803,0.030924020976014432
1669498389163513300,4.848513427734375,0.03275660669803619,-0.014252031910046934,0.024001455171220005
1669498389173445400,4.8584453125,0.040541269224882125,-0.011246529951132834,0.019823950290866196
1669498389183377200,4.868377197265625,0.038303134909272195,-0.0153542209982872,0.009870455824956298
1669498389193309200,4.87830908203125,0.020056115078926084,-0.00639876112639904,0.023131065544858574
1669498389203241500,4.888241455078125,0.00929448256790638,-0.00752973791770637,0.016338519327901303
1669498389213173500,4.898173583984375,0.018870704686641693,-0.020884747922793028,0.016399821061082183
1669498389223105500,4.90810546875,0.030842297509312628,-0.007914499451592564,0.026047245252504944
1669498389233037600,4.91803759765625,0.04011223015785217,-0.015445589076168834,0.022248327893577516
1669498389242969300,4.92796923828125,0.026947628158330916,-0.018789858002774416,0.016576785063184798
1669498389252901400,4.9379013671875,0.010790274083614349,-0.017663411256112156,0.01401444202819839
1669498389262833400,4.94783349609375,0.007643792751431465,-0.01334394062180072,0.020862097699567674
1669498389272765400,4.957765380859375,0.024994740524888037,-0.01007138522453606,0.02343698968887329
1669498389282697500,4.967697509765625,0.04310030605792999,-0.012359459629096091,0.023922270721476523
1669498389292629500,4.97762939453125,0.04249591042399406,-0.01568210124578327,0.017842859476245938
1669498389302561300,4.987561279296875,0.01989946321249008,-0.014902604773268102,0.024892193465866148
1669498389312493300,4.997493408203125,0.028419454276561736,-0.02044770821239799,0.022315584443509576
1669498389322425300,5.00742529296875,0.01045651208460331,-0.01869699208755046,0.011373846125230192
1669498389332357400,5.017357421875,0.027061025404930113,-0.015144012313708662,0.0232304707987234
1669498389342289400,5.027289306640625,0.041867549392580986,-0.014368717092275619,0.022729663403425363
1669498389352221200,5.03722119140625,0.037222938457131385,-0.01628733712993562,0.02152918330617249
1669498389362153200,5.0471533203125,0.013584873238205909,-0.019648959050141274,0.02155552332382649
1669498389372085200,5.057085205078125,-0.005430792877078056,-0.014735394980199634,0.023651089097280052
1669498389382017300,5.067017333984375,0.0189531222730875,-0.01573511007465422,0.013644750199280678
1669498389391949300,5.07694921875,0.04332943863868713,-0.018786277806200086,0.01466298733111471
1669498389401881300,5.08688134765625,0.04287234252095222,-0.00625712416600436,0.018937760307174176
1669498389411813400,5.0968134765625,0.024314357045292855,-0.007897730979882181,0.027238646994158625
1669498389421745400,5.106745361328125,0.011145663392543793,-0.021998810111917556,0.024314704105164855
1669498389431677400,5.116677490234375,0.01368891813457012,-0.01733567713908851,0.023298421468399465
1669498389441609500,5.126609375,0.02984744125306606,-0.021860899478569625,0.03063539502667263
1669498389451541500,5.13654150390625,0.03134206372499466,-0.01831975627299398,0.016853355248551815
1669498389461473500,5.1464736328125,0.03283142549991608,-0.022219101799093186,0.020817272177152336
1669498389471405300,5.1564052734375,0.019204466685652732,-0.021046806616708633,0.02461319386139512
1669498389481337300,5.16633740234375,0.019188684594631192,-0.015154131848923861,0.01670156222032383
1669498389491269400,5.176269287109375,0.04536942003369331,-0.008343428920768201,0.02384516863096505
1669498389501201400,5.186201416015625,0.02486263857781887,-0.019279139357060195,0.02239067724002525
1669498389511133400,5.196133544921875,0.012588263416290282,-0.01371956900116056,0.018721742936316878
1669498389521065500,5.2060654296875,0.019463994404673574,-0.012123678111843764,0.01537204891592264
1669498389530997200,5.215997314453125,0.03756371471881866,-0.017238354244455693,0.018536833089776335
1669498389540929300,5.22592919921875,0.041000118908286094,-0.020050708251446486,0.0247055483199656
1669498389550861300,5.235861328125,0.03396422892212868,-0.01688369558788836,0.024355547572206704
1669498389560793300,5.24579345703125,0.018240005567669866,-0.008953450577892362,0.016767704525403677
1669498389570725400,5.255725341796875,0.007157470539212226,-0.011942695521749555,0.020640417772904037
1669498389580657200,5.2656572265625,0.022563713985681532,-0.01060308094844222,0.01650094334799796
1669498389590589200,5.275589111328125,0.03993161289393902,-0.014951521948911249,0.020875870496593413
1669498389600522200,5.285522216796875,0.04517477424442768,-0.016955445649847387,0.02469367521908134
1669498389610454300,5.295454345703125,0.019581483304500578,-0.009691811322420835,0.023175744936801492
1669498389620386300,5.30538623046875,0.013598901763558387,-0.014385083705186843,0.010746179213561117
1669498389630318300,5.315318359375,0.017480711632966994,-0.015463964983075857,0.015321049381047487
1669498389640250400,5.32525048828125,0.01642038892507553,-0.01868957596607506,0.018906981576420366
1669498389650182100,5.33518212890625,0.03602525310516357,-0.012173800863884388,0.02334478136077523
1669498389660114200,5.3451142578125,0.03213409088551998,-0.014711794908903538,0.01659461298082024
1669498389670046200,5.355046142578125,0.026280104160308838,-0.012575403934717178,0.0181605471232906
1669498389679978500,5.364978515625,0.017137012761831282,-0.01352316964622587,0.01993274442758411
1669498389689910500,5.37491064453125,0.02699848156273365,-0.019030607956089077,0.023089418360218404
1669498389699842600,5.384842529296875,0.028931495451927185,-0.025678265809640288,0.019088256427459416
1669498389709774300,5.3947744140625,0.02921615761220455,-0.012078633393719791,0.023511333566717803
1669498389719706400,5.404706298828125,0.02605681679844856,-0.013704517562501132,0.01207240458233282
1669498389729638400,5.414638427734375,0.009933364993333816,-0.001116765602864325,0.011497070646099745
1669498389739570400,5.4245703125,0.030844635596871374,0.08226747391801327,-0.07130337763745337
1669498389749502500,5.43450244140625,0.20796704313158987,0.016586283543892202,0.00157795337382704
1669498389759434500,5.4444345703125,0.03331774771213531,-0.13558525914028285,0.1477580736234784
1669498389769366300,5.4543662109375,-0.14254384610652923,-0.05156893226094544,0.03347976987343281
1669498389779298300,5.46429833984375,-0.19315876557826994,-0.028721798224002122,0.05297193092666566
1669498389789230300,5.474230224609375,-0.037409400939941405,-0.02579860425367951,0.025957119283638894
1669498389799162400,5.484162353515625,0.16414660610556603,-0.004079159072414041,0.033158319366723296
1669498389809094400,5.494094482421875,0.1900239746838808,0.020848945957049725,-0.01918576198518276
