time,seconds_elapsed,z,y,x
1669502675097581600,0.02158154296875,0.25191899758279324,0.025927564395591615,-0.032689569343812765
1669502675107511600,0.031511474609375,0.4664613274514675,-0.06495791760087014,0.0008295826919376849
1669502675117442600,0.041442626953125,0.23433014940023422,-0.05042158885672688,-0.012453494588099419
1669502675127373600,0.05137353515625,-0.14526947167813778,0.011080854528024792,-0.02196706326678395
1669502675137304600,0.0613046875,-0.24673078128993509,0.00668992609269917,0.0067445788893848654
1669502675147235600,0.071235595703125,-0.025525486400723454,-0.013112433420866727,0.013469539762847125
1669502675157166600,0.08116650390625,0.16024024631679057,-0.02985142330843955,-0.014154416754469275
1669502675167097600,0.09109765625,0.15087445207834244,-0.0015403613097965717,-0.010414718769490718
1669502675177028600,0.101028564453125,0.024330723658204077,0.02575882023256272,-0.024946407871134578
1669502675186958600,0.11095849609375,-0.05253390483558178,0.012194441793113946,-0.018897738824039695
1669502675196889600,0.1208896484375,-0.04007189814746379,-0.01039407784026116,0.004492744841985404
1669502675206820600,0.130820556640625,0.017004910814762113,-0.021483115674741565,0.00676094550229609
1669502675216751600,0.140751708984375,0.0579226121366024,-0.02325618976186961,-0.00113495884668082
1669502675226682600,0.1506826171875,0.06485737983584404,-0.0008205226026475429,-0.0034793665483593937
1669502675236613600,0.160613525390625,0.06159340960383415,0.002706336349248886,-0.005715783830918372
1669502675246544600,0.170544677734375,0.025711948883533477,-0.009773900115303694,0.002905219922214746
1669502675256474400,0.180474365234375,0.008839140015840529,-0.02519647364206612,0.013810644818097352
1669502675266405600,0.190405517578125,0.007519874110817909,-0.027108225547522305,0.010676876837015152
1669502675276336600,0.200336669921875,0.01953004537820816,-0.023296850565820933,-0.0016385609872639178
1669502675286267400,0.210267333984375,0.02689034501314163,-0.03663582275155931,0.0005834624437615275
1669502675296198700,0.22019873046875,0.06329670639038086,-0.026709106694720684,-0.011411182460933924
1669502675306129400,0.23012939453125,0.05421265170276165,-0.021502770223282276,0.0022702099543064833
1669502675316060400,0.240060302734375,0.023729250633716583,-0.03266746710985899,-0.002512092418782413
1669502675325991700,0.24999169921875,0.010747603985667228,-0.012480784453824162,0.0021214856659993527
1669502675335921400,0.25992138671875,0.020199322941899297,-0.015665113578364254,0.011360548252239823
1669502675345852700,0.269852783203125,0.031606267619132995,0.00030859102513641117,-0.007550013520754874
1669502675355783700,0.27978369140625,0.07130173366963863,-0.02026427793689072,-0.0033601971480995414
1669502675365714400,0.28971435546875,0.06474690519869328,-0.013058584341779351,-0.00316872969660908
1669502675375645700,0.299645751953125,0.02378419569134712,-0.025229718324542044,-0.005269062976725399
1669502675385576700,0.30957666015625,-0.004617722928524017,-0.015038944504037498,-0.010478468188084662
1669502675395507500,0.319507568359375,0.0061871642023324964,-0.005602569247409701,0.009221892255730927
1669502675405438700,0.329438720703125,0.02898001076877117,-0.01332801240030676,0.002416230828873813
1669502675415368400,0.339368408203125,0.020487492233514783,-0.011262494705244899,0.00820807557068765
1669502675425299700,0.3492998046875,0.013783610680699348,-0.008596490366384386,0.0013241247432306408
1669502675435230500,0.35923046875,0.02126490634679794,-0.0022094196777790783,0.00973437182251364
1669502675445161500,0.369161376953125,0.029204467174410817,-0.0023524083450436593,0.008327391101419925
1669502675455092700,0.3790927734375,0.03640051615834236,-0.012879355317354202,-0.006597608166746795
1669502675465023500,0.3890234375,0.007535656201839446,-0.004010989207029343,-0.013765453969500957
1669502675474954500,0.39895458984375,-0.004907061263918876,-0.04406352506689727,0.02100512289945036
1669502675484885800,0.4088857421875,0.07208850013315678,-0.03765972243919968,0.04814999066293239
1669502675494815500,0.4188154296875,0.05837503207921981,0.012473916321620345,-0.01195818535182625
1669502675504746800,0.428746826171875,-0.01643967814743519,-0.010509338250383735,0.01671042138021439
1669502675514677500,0.438677490234375,0.0799608409434557,0.0581669788191095,0.0680745517840609
1669502675524608500,0.4486083984375,0.09959083956480026,0.005854278986155987,-0.017495068951882423
1669502675534539800,0.458539794921875,0.0006985036581754684,-0.04415321264434605,-0.020545031107030806
1669502675544470500,0.468470458984375,-0.0731768798917532,-0.023759499641507864,-0.015119243198633192
1669502675554401500,0.478401611328125,-0.059093994003534316,-0.01468088831398636,0.0023292466651648283
1669502675564331500,0.48833154296875,0.03608019816279411,-0.011519465140998364,0.009783215932920574
1669502675574262500,0.498262451171875,0.11658756707310676,-0.020097944926656782,0.016686382917501033
1669502675584193800,0.50819384765625,0.13480360724329948,-0.01599116719495505,-0.0015291092634201048
1669502675594124500,0.51812451171875,0.06650690060853957,-0.00191617235224694,-0.03488901561684906
1669502675604055600,0.5280556640625,-0.015196400088071823,-0.0062275692779570815,-0.07021887033637612
1669502675613986600,0.537986572265625,-0.04456745600104332,-0.012581651012413203,-0.03598437310550362
1669502675623917600,0.54791748046875,-0.018957798448204992,-0.007182130056433379,0.006692483375966549
1669502675633848600,0.5578486328125,0.046099487873911854,-0.007601561044901609,0.025541231959126887
1669502675643778600,0.567778564453125,0.07080547458529472,0.001020794415101409,0.003939933264814317
1669502675653709600,0.57770947265625,0.08175181601345538,-0.018847104615345597,-0.03597001578658819
1669502675663640600,0.587640625,0.06074234573245048,-0.00862878520078957,-0.02012797473873943
1669502675673571600,0.597571533203125,0.044971945148706435,0.0005708221578970551,0.006825096779689193
1669502675683502600,0.607502685546875,0.06569499970376491,-0.002532002695649862,-0.025775332975946367
1669502675693433600,0.61743359375,0.12608721682429314,-0.007072313006408512,-0.025494214479625223
1669502675703364600,0.627364501953125,0.18189561328589915,-0.038165297341160476,0.038289435177482664
1669502675713295600,0.637295654296875,0.19207447747290132,0.08053783711381256,0.05780106811616569
1669502675723225600,0.6472255859375,0.06050795245468616,0.167057452050969,-0.06445804178733379
1669502675733156600,0.657156494140625,-0.1028045409142971,-0.03587225450053811,-0.03769125008862465
1669502675743087600,0.667087646484375,-0.18674480688273906,-0.04037270772494375,0.03839439338929951
1669502675753018600,0.6770185546875,-0.19065701189041137,-0.002925641655735671,-0.14108133580591528
1669502675762949600,0.68694970703125,-0.10185761545300483,0.020713519541732967,-0.08721928763911127
1669502675772880600,0.696880615234375,0.07706628854572772,0.06392382531277835,-0.007293371878564357
1669502675782811600,0.706811767578125,0.17866671436727047,0.08580262577421963,-0.07668600225755945
1669502675792742700,0.71674267578125,0.18752865073680877,0.0420749450655654,-0.18690027143908663
1669502675802672600,0.726672607421875,0.11953180383145809,0.05316569993309676,-0.13150694031808524
1669502675812603600,0.736603759765625,0.04652326624393463,0.1982532026404515,-0.08684557722220197
1669502675822534700,0.74653466796875,-0.1453460440456867,0.43968887319695205,0.12108206548076123
1669502675832465700,0.756465576171875,-0.46939504281580446,0.5558252989690751,0.3531391553824767
1669502675842396400,0.766396484375,-0.5034375976711511,0.5403112112339585,0.19413181186150757
1669502675852327700,0.77632763671875,-0.3276490690886974,0.5449911492111161,-0.14554755796715615
1669502675862258700,0.7862587890625,-0.06992576914131642,0.6433909158278256,-0.387774196238257
1669502675872189400,0.796189453125,0.13204992462098597,0.7887499654855579,-0.38491482475176453
1669502675882119700,0.80611962890625,0.21759353413283825,0.8762116105131804,-0.25057288020346313
1669502675892050400,0.816050537109375,0.27829087167978284,0.8339335075583308,-0.12839262595614417
1669502675901981700,0.825981689453125,0.24141689279079437,0.6606838498037308,-0.01248589902035892
1669502675911912700,0.83591259765625,0.22720950374007223,0.8581595287330448,-0.09515092088859528
1669502675921843500,0.845843505859375,0.14711831441521644,1.128298512008786,-0.16516866089599205
1669502675931774700,0.855774658203125,0.06382979035377502,1.2332711907424032,-0.20284158987663686
1669502675941705700,0.865705810546875,0.014487375035881996,1.1441803370777517,-0.16523498586416244
1669502675951635700,0.8756357421875,-0.011299392649531365,0.9537238161955028,-0.04445506340144202
1669502675961566700,0.885566650390625,-0.03739186528325081,0.9580188830409199,0.03653386021442711
1669502675971497500,0.89549755859375,-0.10594751511514186,1.1539097039315849,0.12155912667429074
1669502675981428700,0.9054287109375,-0.14464870943129063,1.4439550916172563,0.14077392295771277
1669502675991359700,0.91535986328125,-0.11052490603327751,1.6482339477553962,0.045994009072287005
1669502676001290500,0.92529052734375,-0.047023616981506346,1.784788928710669,-0.0016354739810340105
1669502676011221800,0.9352216796875,0.10478022490143775,1.9537107863940297,-0.0030658173114061354
1669502676021152500,0.945152587890625,0.1854582742035389,1.9301285430155692,0.0133687828021124
1669502676031082800,0.955082763671875,0.20313772327899932,1.9488076706528663,0.07545309946173802
1669502676041013800,0.965013671875,0.1888257048100233,1.929509826595336,0.10907545614363626
1669502676050944500,0.974944580078125,0.09244622850716114,1.8097659874483942,0.11422511225808411
1669502676060875800,0.984875732421875,-0.15531448035240172,1.6302163527667521,0.06457520189359783
1669502676070806500,0.994806640625,-0.37057752571105956,1.4637870425514876,0.029034407837130127
1669502676080737500,1.004737548828125,-0.32649346931278705,1.3732102611780166,0.0274832146060653
1669502676090668800,1.014668701171875,-0.200585116186738,1.3291283967368304,-0.00968118033055216
1669502676100599600,1.024599609375,0.09936170698404312,1.4349677753023802,-0.1646307911596261
1669502676110529500,1.034529541015625,0.5487000501990318,1.3892515876576303,-0.4033655504606664
1669502676120460500,1.04446044921875,0.4987234286308288,1.022948378264904,-0.3746026895739138
1669502676130391600,1.0543916015625,0.37767128336429595,1.0507269042894243,-0.373716225595586
1669502676140322600,1.064322509765625,0.2138087548971176,1.2729060126468539,-0.36229083194620904
1669502676150253600,1.074253662109375,-0.1649713664919138,1.1825356405656784,-0.26645985637158154
1669502676160184600,1.0841845703125,-0.7539683557659387,1.0802397067606448,-0.11455791527586988
1669502676170115600,1.094115478515625,-0.9590712416380643,1.1463425566129386,0.015790694453101606
1669502676180046600,1.104046630859375,-0.5656137755990028,1.2282577464945614,0.17303919334169476
1669502676189976600,1.1139765625,-0.02212473804652691,1.085039069866389,0.2989371712042019
1669502676199907600,1.123907470703125,0.2651578338623047,0.6303200565263628,0.2808743305680342
1669502676209838600,1.133838623046875,0.5282698411107063,0.16383154880702494,0.3312714973695576
1669502676219769600,1.14376953125,0.032170915764570235,-0.25278153269626197,0.3288066416259855
1669502676229700600,1.15370068359375,-0.4699456624358892,-0.2209734588947147,0.00017679960532113908
1669502676239631600,1.163631591796875,-1.107289626249671,-0.23002386704105882,-0.18209062440134585
1669502676249562600,1.173562744140625,-0.9516004673659801,0.05336421817988157,-0.4580658395498991
1669502676259492600,1.18349267578125,-0.1788163519710302,0.39758382525406777,-0.734279028172791
1669502676269423600,1.193423583984375,0.5464227529168129,0.33307569724731145,-0.8427556964393704
1669502676279354600,1.203354736328125,0.8755126684635877,0.07124364680685102,-0.7861560765348374
1669502676289285600,1.21328564453125,0.8511071260035038,-0.007727890838310122,-0.5814760922499
1669502676299216400,1.22321630859375,0.45752223419249055,0.06353095353767275,-0.3183618199791759
1669502676309147600,1.233147705078125,-0.11452011314928531,0.0476160664493218,-0.2134368893774226
1669502676319078700,1.24307861328125,-0.33698154557943344,-0.07816179216485471,-0.2877728396438062
1669502676329009400,1.253009521484375,-0.45219081003665923,-0.4457065991165116,-0.23061072701830415
1669502676338940000,1.26293994140625,-0.36082711606919765,-0.6801815272822975,-0.004070235980441794
1669502676348870700,1.27287060546875,-0.09052958123087883,-0.7665783926226198,0.24403482020422815
1669502676358802000,1.282802001953125,-0.02064531314373016,-0.7248400225676596,0.52103261986617
1669502676368733000,1.29273291015625,0.01074701946377754,-0.40728053194731473,0.5496852983767166
1669502676378663700,1.30266357421875,0.05867138467729091,-0.18914405004419385,0.3868030496511608
1669502676388595000,1.312594970703125,0.10789923370480536,-0.4877327731369063,0.3406844186853617
1669502676398525700,1.322525634765625,0.21520050151646136,-0.7892492202445864,0.3829606584766879
1669502676408456700,1.332456787109375,0.25324703131616116,-0.9328599649302661,0.43417295931968836
1669502676418387000,1.342386962890625,0.21030688425600527,-0.878121097396314,0.44297812400069086
1669502676428317700,1.352317626953125,0.2258177571207285,-0.6308145620450377,0.45140725844353435
1669502676438249000,1.3622490234375,0.16087094543576239,-0.5137357043236493,0.31571634697169065
1669502676448179700,1.3721796875,-0.03658697864115238,-0.29220369823072107,0.05601746806844603
1669502676458110700,1.38211083984375,-0.13831658380031586,0.1676570619119331,-0.18614536141855642
1669502676468042000,1.3920419921875,-0.19398761761784553,0.5243586224837228,-0.2600635977295227
1669502676477972700,1.40197265625,-0.23838088609576225,0.49733065909817814,-0.13263066538469864
1669502676487903700,1.41190380859375,-0.1889905399829149,0.3937410322207957,0.012824592922814189
1669502676497833700,1.421833740234375,-0.13672902234792708,-0.06956162113719619,0.11442496394542977
1669502676507764700,1.4317646484375,-0.05832008702158928,-0.412292734086141,0.05127970352340489
1669502676517696000,1.441696044921875,0.09098726187050342,-0.13280401265760883,-0.08141452861679717
1669502676527626800,1.451626708984375,0.1746779369920492,0.3099190588697791,-0.11088333668266423
1669502676537557800,1.461557861328125,0.1214788462460041,0.4678410913720727,0.12530309897558764
1669502676547489000,1.471489013671875,-0.006449030008912086,0.39370563211385157,0.5853253150239587
1669502676557419800,1.481419677734375,-0.14470248544514178,0.2226873866731301,0.908386106474325
1669502676567350000,1.49135009765625,-0.18413900829851626,0.3011402159401215,0.887959185321629
1669502676577280800,1.50128076171875,-0.03186521081626415,0.9976492479659617,0.43739509970396756
1669502676587211800,1.511211669921875,-0.009488543835282325,1.109547926570475,0.030136313797580076
1669502676597143000,1.52114306640625,0.04063771533668041,0.9671619013741611,-0.1643666420644149
1669502676607073800,1.53107373046875,0.06550619913339614,0.7985370538759976,-0.1781073269188404
1669502676617004800,1.5410048828125,-0.011593991681933402,0.47811720538847147,-0.14639505990827456
1669502676626935800,1.550935791015625,-0.003305471286177635,0.029350524581596253,0.1406766822614707
1669502676636866800,1.56086669921875,0.07789455606341361,-0.43995048327520486,0.43653899433128535
1669502676646796800,1.570796875,0.28987492648959157,-0.4515284736704081,0.48126642666701225
1669502676656727800,1.580727783203125,0.49198155315518377,-0.772901312033832,0.43449294852167364
1669502676666658800,1.590658935546875,0.5937491522371768,-1.5062705318853258,0.40002464253492653
1669502676676589800,1.60058984375,0.7836264119267463,-1.6876412445142863,0.2572862967696041
1669502676686520800,1.610520751953125,0.7809452100187539,-1.9473820217639206,0.14311090540476143
1669502676696451800,1.620451904296875,0.824623608225584,-2.0672741833403707,0.09692078010533005
1669502676706382800,1.6303828125,0.6994231111079454,-2.6397645667105913,0.19649181899111717
1669502676716312800,1.640312744140625,0.39996670180261135,-3.342418914824724,0.4008510834217071
1669502676726243800,1.650243896484375,0.08221534187197685,-3.657888009037077,0.5010056212838739
1669502676736174800,1.6601748046875,-0.13274784375727175,-3.663286360949278,0.4553592840049416
1669502676746105900,1.67010595703125,-0.14987199703752993,-3.58995049110353,0.452348777077347
1669502676756036900,1.680036865234375,0.010880290454626082,-3.6756072056010365,0.449180412706919
1669502676765968000,1.6899677734375,0.13489946883320808,-3.854670810331404,0.4484770867431536
1669502676775899000,1.69989892578125,0.2958703675121069,-3.666776833413541,0.47971221949495374
1669502676785830000,1.709829833984375,0.33943946012556553,-3.505692829748988,0.39290578697305173
1669502676795759900,1.719759765625,0.27098493258059025,-3.3100062992587684,0.29027970789819957
1669502676805691000,1.72969091796875,0.196153855741024,-2.964932924899459,0.1953673815384507
1669502676815622000,1.739621826171875,0.145804309207201,-2.2610417284667492,-0.10106993567403405
1669502676825552600,1.749552734375,0.32539456816017626,-0.9073708650171757,-0.28496012031063434
1669502676835484000,1.75948388671875,0.4040501717239618,-0.225975285769999,-0.18536836743038146
1669502676845415000,1.769414794921875,0.33050913469493387,-0.21421470534950493,-0.0537337090793997
1669502676855345700,1.779345703125,0.20785364588499067,-0.3103527741119265,0.045987003942765295
1669502676865277000,1.78927685546875,0.07706453498005866,-0.3531424067854881,0.1207146934730932
1669502676875206700,1.79920654296875,-0.03669102353751659,-0.2720911402568221,0.19439038973245767
1669502676885138000,1.809137939453125,-0.13437807530760765,-0.12032120064347981,0.1807421324018389
1669502676895069000,1.81906884765625,-0.15391045877337456,0.10166611146889626,0.08000088069289922
1669502676904999700,1.828999755859375,-0.10795125615298748,0.5449898705694824,0.2088860211400315
1669502676914931000,1.838930908203125,-0.09861001183390616,1.205129530493915,0.42206060631945724
1669502676924862000,1.848862060546875,-0.07629705773890018,1.0850474723685533,-0.0401063484063372
1669502676934792700,1.858792724609375,0.002567220139503479,0.6629654579348861,-0.5108324206301942
1669502676944724000,1.868723876953125,0.20095336497724056,0.26442520873881875,-0.7158687806047499
1669502676954653700,1.87865380859375,0.452008439207077,0.25177593585029245,-0.6597309329930693
1669502676964584700,1.888584716796875,0.4037374525129795,-0.16252601916640996,-0.11094908626209944
1669502676974516000,1.898515869140625,0.1360311032116413,-0.39101781780198214,0.3339292088041082
1669502676984446700,1.90844677734375,-0.157494162479043,-0.21352504258491098,0.46051367109343405
1669502676994377700,1.918377685546875,-0.3947691331595182,0.030850846141949294,0.1752665870675817
1669502677004308700,1.928308837890625,-0.2575532040774822,0.09644282386265694,-0.16302432407736778
1669502677014239700,1.93823974609375,0.1447065770983696,0.03133994483314454,-0.1796782660299912
1669502677024170000,1.948169921875,0.3614092998713255,-0.0858388661313802,-0.023695056103169916
1669502677034100700,1.958100830078125,0.24150340203046797,-0.06787870041839777,0.08063004544191062
1669502677044031700,1.96803173828125,0.009508417579531669,-0.004362140732258558,0.04128061635009944
1669502677053962800,1.977962646484375,-0.062064534246921536,0.052418461762368675,0.009810980722680687
1669502677063893800,1.987893798828125,-0.018299042278528212,0.00012362637966871262,-0.020661606691405175
1669502677073824800,1.99782470703125,0.06767828247547149,-0.043046456978842615,0.0018676570354029536
1669502677083755800,2.007755859375,0.09490589661896229,-0.028387378637865186,0.015876454774104057
1669502677093686800,2.017686767578125,0.08293138118684291,-0.023836948791891334,0.032067345792241395
1669502677103616800,2.02761669921875,0.04302665629982948,-0.01651376629695296,0.03854362913426011
1669502677113547800,2.0375478515625,-0.010974398478865622,-0.019906915866583583,-0.005648417683131992
1669502677123478800,2.047478759765625,-0.025027473750710485,-0.029423809013515708,-0.039638329035788775
1669502677133409800,2.057409912109375,0.03822305541038513,-0.05262596703320741,-0.008841989560052752
1669502677143340800,2.0673408203125,0.08272504495978356,-0.05660495366677642,0.04006700277663767
1669502677153271800,2.077271728515625,0.07210954292118549,-0.002476692311838269,-0.025356303846277295
1669502677163202800,2.087202880859375,0.01469020413160324,0.017746961353719233,-0.14298757128603756
1669502677173133800,2.0971337890625,0.048692426976561544,-0.006197612531110644,-0.1416397003410384
1669502677183063800,2.107063720703125,0.053769584110379215,-0.049860593973100185,-0.09461674094665795
1669502677192994800,2.116994873046875,0.010467033478617667,-0.019991306214407086,-0.0740653166314587
1669502677202925800,2.12692578125,-0.0388169296503067,0.00908507760092616,-0.20139361955802887
1669502677212856800,2.13685693359375,-0.007404138776659965,-0.04061090039499104,-0.24743651840649544
1669502677222787800,2.146787841796875,0.03525602229833603,-0.061769423757866024,-0.16393771259523926
1669502677232718600,2.156718505859375,0.04999883340001106,-0.10312149790897965,-0.16603519633114336
1669502677242649900,2.16664990234375,0.0504939234405756,-0.10962795719355344,-0.21208006794098763
1669502677252579800,2.176579833984375,0.04017594304382801,-0.017351970686763522,-0.19240736268907785
1669502677262510800,2.1865107421875,0.027408231407403946,0.020918284866213797,-0.2711170710602775
1669502677272441900,2.19644189453125,0.04775894551873207,0.004748144375160336,-0.37852987295500934
1669502677282372600,2.20637255859375,0.14087269802391528,0.09713606682382524,-0.37100079262442887
1669502677292304000,2.216303955078125,0.15890461379885673,0.13996120920218527,-0.29771504553072153
1669502677302235000,2.22623486328125,0.02935819643139839,0.09334398106448352,-0.28554464220032094
1669502677312165600,2.23616552734375,-0.1421837806224823,-0.029539836608618496,-0.4591881581107154
1669502677322097000,2.246096923828125,-0.19664543865025041,-0.12404643171168864,-0.7615402523249387
1669502677332026600,2.256026611328125,-0.16344401079416274,-0.049408904682844874,-1.0024377243515104
1669502677341958100,2.265958251953125,-0.10641805523633956,0.05623736246339976,-1.20044356463477
1669502677351889200,2.27588916015625,-0.027556699967384336,0.06916749811992048,-1.4408929275676607
1669502677361820200,2.285820068359375,-0.0051198272317647935,0.12037943363673985,-1.6308216251835226
1669502677371751200,2.295751220703125,-0.023012042275071143,0.24892332289814947,-1.828671763448417
1669502677381682200,2.30568212890625,-0.011080781462788581,0.3533111874811351,-2.1459527293883265
1669502677391613000,2.315613037109375,0.012957681250572204,0.34795864747203886,-2.4664351217180487
1669502677401544200,2.325544189453125,0.011263152292370796,0.22105872602537274,-2.5749583325400947
1669502677411474200,2.33547412109375,0.0727758978754282,0.10751564121469855,-2.5751696372032162
1669502677421405200,2.3454052734375,0.10629296755194663,0.08654993701018393,-2.5108526478543878
1669502677431336200,2.355336181640625,0.17469255003929138,0.11134162924364209,-2.5174124447613955
1669502677441267000,2.365266845703125,0.1909030956059694,0.07573175200633704,-2.529113988471031
1669502677451198200,2.3751982421875,0.21152795048356055,0.07225202013179659,-2.5649077709078787
1669502677461129200,2.385129150390625,0.16811375617086885,-0.039637744513899086,-2.278322387482971
1669502677471060000,2.39506005859375,0.2261217085033655,-0.2008444247100502,-2.2283599405705927
1669502677480990200,2.404990234375,0.1861626230806112,-0.1765639699343592,-2.2425028860829768
1669502677490921000,2.4149208984375,0.13926876995861528,-0.03578063069432973,-1.8957908046059309
1669502677500852200,2.424852294921875,0.13276070323884487,-0.01673822270259261,-1.2465918600864707
1669502677510783200,2.434783203125,0.07465162861943245,-0.030123627845942972,-0.7581186073131859
1669502677520714000,2.4447138671875,0.07879413525164126,0.039608226158469914,-0.4622719860028475
1669502677530645200,2.454645263671875,0.2358563360542059,-0.10732399110011756,-0.6013413609318435
1669502677540576300,2.464576171875,0.397483068293333,-0.33560470426827665,-1.0244109981633722
1669502677550507000,2.474507080078125,0.3873158945441246,-0.4204186112660914,-0.6502884202565997
1669502677560437200,2.484437255859375,0.37579730618596074,-0.45682752992659803,-0.47807533900812266
1669502677570368000,2.494367919921875,0.22670038517415522,-0.23758513260819017,-0.6224481541074812
1669502677580299300,2.50429931640625,-0.09858078573942183,-0.07765234480537474,-0.45731860137917096
1669502677590230300,2.514230224609375,-0.39106443342268465,-0.10219071986488998,-0.29388134911935776
1669502677600161000,2.5241611328125,-0.47542263254225253,-0.35572497062459585,-0.4573387308517471
1669502677610092300,2.53409228515625,-0.6363602134734392,-0.5018058317508548,-0.26220577912367876
1669502677620023000,2.54402294921875,-0.6032698447763919,-0.5934180205866694,0.0740619921632111
1669502677629954000,2.5539541015625,-0.5591869574218988,-0.7408975695297122,0.7552883523233235
1669502677639884000,2.563884033203125,-0.2867155856758356,-0.7824542994074523,0.9390772320099174
1669502677649815000,2.57381494140625,0.04909340899288654,-0.49779396576099094,0.5535214790061116
1669502677659746000,2.58374609375,0.22209727529287338,-0.06089592885896563,0.09115801532752811
1669502677669677000,2.593677001953125,0.4798357728093862,0.1345817081209272,-0.4405472801245749
1669502677679608000,2.603608154296875,0.3790145146667957,0.18072700789794324,-0.43019740675222123
1669502677689539000,2.6135390625,0.6892407397896051,-0.037402898133918644,-0.46410687327980993
1669502677699470000,2.623469970703125,0.3992477398782968,-0.26294483398795127,0.21799524680152535
1669502677709401000,2.633401123046875,-0.28017712381780147,-0.4914113520517945,0.9932827963847667
1669502677719331000,2.6433310546875,-0.7476029123872519,-0.5874818354707211,1.34277625220865
1669502677729262000,2.653261962890625,-1.0203297201991082,-0.2331817465500906,1.337013158637285
1669502677739193000,2.663193115234375,-0.9551222117513417,0.2446034504050389,1.0406552268039435
1669502677749124000,2.6731240234375,-0.6296317820012569,0.4354286950018257,0.34655309152305125
1669502677759055000,2.68305517578125,-0.0833592512100935,0.43190556237697597,-0.8457122081574052
1669502677768986000,2.692986083984375,0.15656418815255163,0.35178098223917187,-1.6768077158108352
1669502677778917000,2.702917236328125,0.44095922192633147,0.26306224982254206,-1.604797687741369
1669502677788847000,2.71284716796875,0.4624573525071144,0.1707218928426504,-0.21737758982721714
1669502677798778000,2.722778076171875,0.4547837491393089,-0.057088316736929115,0.7994003196418284
1669502677808709000,2.732709228515625,0.3311012553691864,-0.22477902519013732,0.9711378192678093
1669502677818640000,2.742639892578125,0.09020107992887497,-0.04878171269521117,0.68052201128304
1669502677828571100,2.752571044921875,-0.08957797959446906,0.21943722577076405,0.006546243305690586
1669502677838502100,2.762502197265625,-0.07942717245817184,0.39128253315277395,-0.7703484857458621
1669502677848433000,2.772432861328125,0.11854922253489493,0.4671842348985374,-1.3829814213469624
1669502677858364200,2.7823642578125,0.39412206742763517,0.5143867521109059,-1.772687279767543
1669502677868294000,2.7922939453125,0.410472898247838,0.5729283729286864,-1.4092192938007413
1669502677878225200,2.80222509765625,0.3361462637990713,0.5451946358939632,-0.3730938924461603
1669502677888156200,2.81215625,0.483057072943449,0.2905280931686982,0.21613478669188915
1669502677898087000,2.8220869140625,0.5357102202445269,-0.0623032383736223,1.0936720928508787
1669502677908018200,2.83201806640625,0.6406196244835853,-0.41572142989318817,1.750389961633086
1669502677917949200,2.84194921875,0.94447631457448,-0.31232407418489455,1.1386296441480517
1669502677927880000,2.8518798828125,0.9230752146273851,0.5241212335312738,0.34425931803006676
1669502677937811200,2.861811279296875,0.7279004330515861,1.1470758393235505,0.12454979639025404
1669502677947741000,2.871740966796875,0.38538638778626916,1.1045903041630982,0.5108020620245486
1669502677957672200,2.881672119140625,0.07169862403273582,0.7061182248324155,0.9915425285886973
1669502677967603200,2.891603271484375,-0.17855039451122282,0.23947120208311826,1.5219571997083723
1669502677977534000,2.901533935546875,-0.26227438738048076,-0.27228929317742584,1.9837525811754166
1669502677987465200,2.91146533203125,-0.20025193870961666,-0.7497457696348429,2.6605674085035917
1669502677997396000,2.92139599609375,-0.17342004588544369,-1.0721662904202938,3.0711580879122016
1669502678007327000,2.931326904296875,-0.0859293939590454,-1.1295302457608283,3.1322762812197205
1669502678017257200,2.94125732421875,0.020641806012392044,-0.6106251759752631,2.6006343333274127
1669502678027188000,2.95118798828125,0.13043956681489943,0.32354970747847106,1.7218949579022824
1669502678037119200,2.961119140625,0.13674421991705893,1.0076761364616453,0.979910469918698
1669502678047050000,2.971050048828125,0.1827431700259447,1.1978812398660927,0.3143688048202544
1669502678056981000,2.98098095703125,0.22997955297529696,1.0684395249821246,-0.16842760789301245
1669502678066912300,2.990912353515625,0.04586392555236816,0.7803190409444272,0.06058368457201868
1669502678076843000,3.000843017578125,-0.20830022060871123,0.07166399111077189,0.6446663425911218
1669502678086774000,3.01077392578125,-0.3822603647202253,-0.7526824806738645,0.8872826012343168
1669502678096704000,3.0207041015625,-0.5016039525032043,-1.1010273509845137,0.6295809285968542
1669502678106635000,3.030635009765625,-0.5475421123355627,-0.9606780923128128,0.3607786738175899
1669502678116566300,3.040566162109375,-0.5048246681153774,-0.7373484256807714,0.20014665170423684
1669502678126497000,3.0504970703125,-0.2253641681343317,-0.6094552188804373,0.017771949664503336
1669502678136428000,3.060427978515625,0.040811902859807014,-0.4093259932350367,0.14256914494456724
1669502678146359300,3.070359375,0.231947053655982,-0.07254703928930685,0.4557502560839057
1669502678156290000,3.0802900390625,0.3893219736695289,0.2673697012254968,0.8966199000306427
1669502678166221000,3.090220947265625,0.4292214378595352,0.46321324890833343,1.4274410330593585
1669502678176151000,3.100151123046875,0.4513327319025993,0.47324791885167355,2.0630226633757354
1669502678186082000,3.11008203125,0.441551342600584,0.39346922954209146,2.7105036980614066
1669502678196013300,3.120013427734375,0.4328402128785848,0.19807298723533748,3.242210235622525
1669502678205944000,3.129944091796875,0.4144903171956539,0.042443339986540374,3.5094407841056583
1669502678215875000,3.139875,0.27027064683139324,0.06050882923752069,3.6278316012084484
1669502678225806000,3.14980615234375,0.1048047748208046,0.2103261004131287,3.109055856890976
1669502678235737000,3.159737060546875,0.0011368950754404067,0.2556365568011999,0.9200934223376214
1669502678245667300,3.169667236328125,-0.24472879381775856,0.3930641558725387,-0.46697161506116386
1669502678255598000,3.17959814453125,-0.6059750120818614,0.306619323204644,-0.59390412360318
1669502678265529000,3.189529052734375,-0.803161133480072,-0.18629505382124334,-0.2088379807472229
1669502678275460000,3.199460205078125,-0.6407949810504913,-0.3849129981208592,0.06283646846748889
1669502678285391000,3.20939111328125,-0.19030279162526129,-0.09664481270816176,0.18268435251079498
1669502678295322000,3.219322021484375,0.013532266268134117,0.017036566328350454,0.3186309192441404
1669502678305253000,3.229253173828125,0.08776011651754378,0.007057773024402559,0.0919491291726008
1669502678315184000,3.23918408203125,0.11647416982650756,-0.09341927479039877,-0.15330430957376956
1669502678325114000,3.249114013671875,0.19779519320726394,-0.06138453435981646,-0.33023492086343464
1669502678335045000,3.259045166015625,0.18953356081843376,-0.1140508516697213,-0.3671600454177707
1669502678344975400,3.268975341796875,0.10963058754205703,-0.4479020998667925,-0.248338143421337
1669502678354906600,3.27890673828125,0.1741945373892784,-0.1592984536883421,0.026881175325997174
1669502678364837600,3.288837646484375,0.09938742594718933,0.08659684489183127,-0.04337093969285488
1669502678374768400,3.298768310546875,0.00023030162453651428,0.1289392817871645,-0.04132577066607773
1669502678384699600,3.30869970703125,-0.04684124615192413,0.05925133998971432,0.001576163275539875
1669502678394630700,3.318630615234375,0.00006955810487270355,-0.0073259589739143845,-0.019870383248478174
1669502678404560600,3.328560546875,0.05844575922787189,-0.06634040320152416,-0.0351816053552553
1669502678414491600,3.33849169921875,0.040027474483847615,-0.1225978586048819,-0.04431790168676525
1669502678424422400,3.34842236328125,0.022094342908263204,-0.11401815497651696,-0.0028913009947165846
1669502678434353700,3.358353759765625,0.028353987824916837,-0.0312822598291561,0.04114109828155488
1669502678444284700,3.36828466796875,0.04787643441855907,-0.010142404634132981,0.04547499930001795
1669502678454215400,3.37821533203125,0.041218730095028876,-0.0415274307180196,0.06373462288361043
1669502678464146700,3.388146728515625,0.04828384617567062,-0.05698653686288744,0.03291954217478633
1669502678474076400,3.398076416015625,0.0545978516280651,-0.009087324356939644,-0.01917487526498735
1669502678484007700,3.408007568359375,0.01004383963048458,-0.050297250091005115,-0.0701195016151294
1669502678493938700,3.417938720703125,-0.01538870778977871,-0.08655072246147319,-0.05347213553376495
1669502678503869400,3.427869384765625,0.020287585747241973,-0.033152218419499696,0.015123919373750686
1669502678513800700,3.43780078125,0.029990064594149587,-0.020136395507212728,0.051041218592412764
1669502678523731500,3.4477314453125,0.04188157791793346,-0.06948858330044895,0.04577515129037201
1669502678533662500,3.457662353515625,0.039404958671331404,-0.05614035009602084,0.023665355084650216
1669502678543593700,3.46759375,-0.00022679449319839477,-0.042132045547664164,0.02880611550658941
1669502678553523500,3.4775234375,-0.006784545573592185,-0.03338368908781558,-0.0032354017246514558
1669502678563454700,3.487454833984375,-0.0124263508528471,-0.00908723302539438,0.028601094453781842
1669502678573385500,3.497385498046875,0.09545242458581923,0.016054916613548992,0.17064608766008169
1669502678583316500,3.50731640625,0.16443243730962276,0.00035701501043513417,0.15220887901987878
1669502678593247700,3.517247802734375,0.07837327949106693,-0.09189389185402541,0.03120024410150945
1669502678603178500,3.527178466796875,0.06616086364984512,-0.18908442881144583,-0.1271523983703926
1669502678613109500,3.537109619140625,0.10753449204564094,-0.5851282580818981,-0.1384904059972614
1669502678623040800,3.547040771484375,0.1018371571868658,-0.8122575361926108,0.04571249785032123
1669502678632970500,3.556970458984375,0.2164361807912588,-0.7591995344176888,0.22416684810854492
1669502678642901800,3.56690185546875,0.17470307143330574,-0.8115969533920288,0.257108127191104
1669502678652832500,3.57683251953125,0.19623861141502857,-0.6027608723409473,0.02256071831099689
1669502678662763500,3.586763427734375,0.14415420391261577,-0.40441169851273295,-0.30089608671963214
1669502678672694800,3.59669482421875,-0.03329553588032722,-0.27007614717260003,-0.4612876876732334
1669502678682625500,3.60662548828125,-0.18572014001011847,-0.17508268186803908,-0.43350459507144984
1669502678692556500,3.616556640625,-0.29703415059447286,-0.17062296251282094,-0.3056442676274106
1669502678702486500,3.626486572265625,-0.26301030043959617,-0.2225802365042269,-0.1950317929085344
1669502678712417500,3.63641748046875,-0.13284487439095974,-0.26898126460798083,-0.020790347637608647
1669502678722348500,3.6463486328125,-0.020890812337398527,-0.40360301247835156,0.11920969573762268
1669502678732279600,3.656279541015625,0.10039631072878837,-0.5812949635293334,0.1329264882598072
1669502678742210600,3.66621044921875,0.20448679980039594,-0.7775436579469591,0.08767028280962258
1669502678752141600,3.6761416015625,0.25430150880515573,-0.9460690636586397,0.07485069485548883
1669502678762072600,3.686072509765625,0.19070026651024818,-1.1395414982959629,0.05535385762713849
1669502678772003600,3.696003662109375,0.05947451775372028,-1.4142223627850412,0.10597381860017775
1669502678781933600,3.70593359375,-0.06011281565725803,-1.678103746970743,0.2707053119216114
1669502678791864600,3.715864501953125,-0.1077192009627819,-1.787431113782525,0.43978678061347454
1669502678801795600,3.725795654296875,-0.10265841044187546,-1.755877160872519,0.5686053220978007
1669502678811726600,3.7357265625,0.0032902737170457837,-1.4657492825351655,0.46625908287763596
1669502678821657600,3.74565771484375,0.06683657095432281,-1.1922266481705008,0.2895043030789122
1669502678831588600,3.755588623046875,0.07227905426919459,-1.1086338804654776,0.19725659281853586
1669502678841519600,3.76551953125,0.09186930540204048,-1.095976570400968,0.10430679870340973
1669502678851450600,3.77545068359375,0.07177461187839508,-1.0875941611766815,0.03204626647159457
1669502678861380600,3.785380615234375,-0.022945406779646873,-1.0078251895435153,-0.06410586734879761
1669502678871311600,3.7953115234375,-0.08817161992788314,-0.8798333812069147,-0.10704184969048947
1669502678881242600,3.80524267578125,-0.14096505248248575,-0.8033064602348953,-0.123060562479496
1669502678891173600,3.815173583984375,-0.2484253102481365,-0.8708904154904186,-0.08224971906561404
1669502678901104400,3.8251044921875,-0.3341536286771297,-1.0784558920837939,0.03679755265191197
1669502678911035600,3.83503564453125,-0.40363340761661526,-1.3276255909584462,0.17615199159998446
1669502678920966700,3.844966552734375,-0.5103092370063066,-1.5745029411122202,0.354352257499285
1669502678930896600,3.854896728515625,-0.630015812882781,-1.7511477942630647,0.3811665050689131
1669502678940827600,3.86482763671875,-0.7264736151188611,-1.9378554840058086,0.2962465438807383
1669502678950758400,3.87475830078125,-0.6483084254205227,-2.081931508115679,0.14268477068087085
1669502678960689700,3.884689697265625,-0.4628104037284851,-2.253903693280369,0.05106971403453499
1669502678970620700,3.89462060546875,-0.07500818697214126,-2.4922066918343306,-0.03564392563737929
1669502678980551400,3.904551513671875,0.5224333900421858,-2.6818124411061404,-0.18929405297413468
1669502678990482700,3.914482666015625,1.1791098308354615,-2.689889072316885,-0.18539401332829147
1669502679000413700,3.92441357421875,1.5444044477075338,-2.344429475118965,-0.1979815643585287
1669502679010343400,3.934343505859375,1.261255030080676,-1.7702091992162168,-0.2521065195115283
1669502679020274700,3.944274658203125,0.770840580111742,-1.360605631148815,-0.01835687341298908
1669502679030205400,3.954205322265625,0.24345745870769023,-1.0539206588294356,0.17110164940785616
1669502679040136400,3.964136474609375,-0.20688860024511813,-0.9924208457931876,0.39073388629406686
1669502679050067700,3.974067626953125,-0.49418110902607437,-1.1066948021616787,0.6651740008298307
1669502679059998500,3.98399853515625,-0.650586891746521,-1.3099866200238466,0.8811630223754793
1669502679069929500,3.993929443359375,-0.585399257043004,-1.3730258445218204,1.0197782237961888
1669502679079860700,4.00386083984375,-0.408486692866683,-1.2497586535543204,0.9394972840528935
1669502679089790500,4.01379052734375,-0.023339959055185315,-1.2554834609419108,0.6417729592371731
1669502679099721700,4.0237216796875,0.6103367144227028,-1.3349009887889027,0.1925454925181344
1669502679109652500,4.033652587890625,1.0437363147497176,-1.0258644849073142,-0.1286799732638523
1669502679119583500,4.04358349609375,1.2334645213574171,-0.29117753352075815,-0.1193601553252898
1669502679129514500,4.053514404296875,1.2976210594475268,0.184115700488165,-0.1364034253890626
1669502679139445500,4.063445556640625,1.199444762855768,0.19611067418642342,-0.15145838944613932
1669502679149376500,4.07337646484375,0.9081354196488857,0.19502653221152721,-0.09045324632534757
1669502679159306500,4.083306396484375,0.6174363172948361,0.11641717894226312,0.0713582496298477
1669502679169237500,4.093237548828125,0.7062035650283098,-0.4847423226166516,0.04165865588225424
1669502679179168500,4.10316845703125,0.8092004136443137,-0.7076252683945,-0.1686821123770438
1669502679189099500,4.113099609375,0.9249532834589481,-0.6461922369841486,-0.4050092260144651
1669502679199030500,4.123030517578125,1.0515899508595465,-0.7510139629397541,-0.5041989739650861
1669502679208961500,4.13296142578125,1.1969324877738952,-0.7742891131304204,-0.5864769327444955
1669502679218892500,4.142892578125,1.26770055295825,-0.5862363654542714,-0.5682053629947826
1669502679228823600,4.152823486328125,0.5401362199932337,-0.7016593457274138,-0.24077095957007258
1669502679238753500,4.16275341796875,-0.0025070143848657605,0.034951431594882156,0.033932957001030446
1669502679248684500,4.1726845703125,-0.08116027986109256,0.5865636246472596,0.44331283584777265
1669502679258615600,4.182615478515625,-0.11878770746588706,1.1012534148253499,0.7934274557773023
1669502679268546600,4.192546630859375,-0.3726280285000801,1.2794096954524516,1.1717448550254106
1669502679278477600,4.2024775390625,-0.5589630855381489,1.1347398701678961,1.3013514781475066
1669502679288408600,4.21240869140625,-0.6570581335872412,0.8806754580542445,1.3298745389290154
1669502679298339600,4.222339599609375,-0.9746481654763222,0.608543656993471,1.4051780555859208
1669502679308270300,4.232270263671875,-0.8597977974593639,0.2429158261116594,1.4379066052332519
1669502679318200600,4.24220068359375,-0.41644028221964835,0.40812794255688783,0.9488763030990958
1669502679328131600,4.252131591796875,-0.25790391721129413,0.6153307233177125,0.39499223785828796
1669502679338062600,4.2620625,-0.15312018517851828,0.7505380159910768,0.062021316159702834
1669502679347993600,4.27199365234375,-0.1700993770301342,0.8395971593432128,0.12070289343744516
1669502679357924600,4.281924560546875,-0.28472645768523214,0.7899361795954406,-0.026597864872589704
1669502679367855900,4.29185595703125,-0.10794365736842154,0.8035747557822615,-0.3025978491362184
1669502679377786600,4.30178662109375,0.16894202368855477,0.5700854776529595,-0.3828648334193975
1669502679387716900,4.311716796875,0.20976737055182457,0.6792276606235653,-0.19945311648212372
1669502679397647600,4.321647705078125,0.2567477329134941,1.0779265344474465,-0.00046717912033200263
1669502679407578600,4.33157861328125,-0.0255845231115818,1.3508603360734879,-0.0043768268447369335
1669502679417510000,4.341510009765625,-0.25621815608143805,1.2033323448788373,-0.1697072724400088
1669502679427440600,4.351440673828125,-0.3361152841389179,1.0891548346221447,-0.3734437287971377
1669502679437371600,4.36137158203125,-0.5066489609330892,0.7439160405680537,-0.39354309849590063
1669502679447302700,4.371302734375,-0.6928554231554269,0.5662613527875393,-0.3735743694394827
1669502679457233700,4.381233642578125,-0.7559732658475637,0.6694355307318269,-0.33098880797065794
1669502679467164700,4.39116455078125,-0.6968903777599335,1.0389280376851557,-0.18557561697289346
1669502679477095700,4.401095703125,-0.5140203664839268,1.3263316056251524,-0.003858355928584933
1669502679487026700,4.411026611328125,-0.23915771568715571,1.436561181973666,0.1982190446425229
1669502679496956700,4.420956787109375,-0.08511749305427074,1.4860077883183955,0.4330910458344966
1669502679506887700,4.4308876953125,0.06652209817767143,1.6000684672623873,0.5480540073804557
1669502679516818700,4.440818603515625,0.06412322034239769,1.744943532795459,0.5292022265899926
1669502679526749700,4.450749755859375,-0.03298983093202114,1.911165776131302,0.5547304894696921
1669502679536680700,4.4606806640625,-0.1586667133897543,2.017931183500588,0.5232227868542075
1669502679546611700,4.47061181640625,-0.41749826683998104,2.000748578031361,0.448644954123348
1669502679556542700,4.480542724609375,-0.6205898128896952,2.323676902208477,0.2880717129925266
1669502679566472700,4.49047265625,-0.7043634901195764,2.0884747922793028,0.1913796270765364
1669502679576403700,4.50040380859375,-0.755219232609868,1.6277901485331356,0.1294214027483016
1669502679586334700,4.510334716796875,-0.7471434781819581,1.3446519829526542,0.08100008433070033
1669502679596265700,4.520265625,-0.6487380490094423,1.0972944480665028,0.03649637774825096
1669502679606196700,4.53019677734375,-0.406002474835515,1.1114951151154935,0.024197123873792588
1669502679616127700,4.540127685546875,-0.0864917040169239,1.2221928934976458,-0.021592055941931903
1669502679626058500,4.55005859375,0.1764116289168596,1.380610454431921,-0.06487970126550645
1669502679635989800,4.55998974609375,0.36098318341374397,1.5540449672341345,-0.026150541230197995
1669502679645919700,4.569919677734375,0.49610827769637106,1.6906790047749876,0.050941685474384574
1669502679655850800,4.579850830078125,0.4768775075256824,1.769795503848791,0.20328454787116496
1669502679665781800,4.58978173828125,0.3356991045534611,1.8421395861782133,0.4781297360764816
1669502679675712500,4.59971240234375,0.20589023685753344,1.8042419633299112,0.6280468508973718
1669502679685643800,4.609643798828125,0.040054947012662885,1.6667337733030319,0.6726977473981678
1669502679695574800,4.61957470703125,-0.06591711802184581,1.6620413777031005,0.6621798605151474
1669502679705505500,4.629505615234375,-0.06094225221872329,1.7514980690054593,0.5328781386237591
1669502679715435800,4.639435791015625,0.025920623198151586,1.7810422895282505,0.30363117423932995
1669502679725366500,4.649366455078125,0.18871523017287253,1.6998578981392085,0.1285308836493641
1669502679735297800,4.6592978515625,0.42645080410242076,1.7822693471051752,-0.11844331447500735
1669502679745228800,4.669228759765625,0.5912368771553039,1.9122389583207666,-0.42119083774760363
1669502679755159600,4.67915966796875,0.5401163462489843,1.497466317052394,-0.5306084401261061
1669502679765090800,4.6890908203125,0.2539537182807922,0.6610794980578124,-0.19548501656875014
1669502679775021800,4.699021728515625,-0.002594108146429062,0.16099398729354142,0.043567156384699046
1669502679784952600,4.70895263671875,-0.1804027443796396,-0.18393647146373987,0.04191701455749571
1669502679794882800,4.7188828125,-0.19537994875907896,-0.33405484447777267,0.0007366071788594126
1669502679804813600,4.7288134765625,-0.13269465226531027,-0.4386597858775407,0.011462145463190972
1669502679814744800,4.738744873046875,-0.10456570536792277,-0.5567608262535184,0.01088587994519621
1669502679824675800,4.74867578125,-0.03291910378336906,-0.5786016327921301,-0.014082520562037825
1669502679834606600,4.758606689453125,0.1036672952234745,-0.4979557321939617,0.0326351357428357
1669502679844537900,4.768537841796875,0.2639285843282938,-0.38049057856872676,0.13703308332841843
1669502679854468600,4.778468505859375,0.3803565769255161,-0.28285715668201444,0.15371511886436492
1669502679864399600,4.788399658203125,0.3484077794790268,-0.23898104394599795,-0.00817607299722731
1669502679874329900,4.798329833984375,0.2016962922990322,-0.20856902761273086,-0.28394761879984287
1669502679884260600,4.808260498046875,-0.0012760112851858138,0.06080993107594549,-0.44124866985958067
1669502679894191600,4.818191650390625,-0.30793256122767926,0.13398659177199004,0.04797158362241462
1669502679904122600,4.82812255859375,-0.3790180217981338,0.007239741995185613,0.24944241486880928
1669502679914053600,4.8380537109375,-0.22476970937252044,-0.03655497606769204,-0.04824501200262457
1669502679923984600,4.847984619140625,0.03247720523476601,-0.08116159503534436,-0.24978863449059424
1669502679933915600,4.85791552734375,0.2071598184019327,-0.12423742423914372,-0.19179144101412965
1669502679943845600,4.867845703125,0.2083101574808359,-0.1472032162196934,-0.027004600776266305
1669502679953776600,4.877776611328125,0.07831132017076015,-0.11136325655356048,0.05678692263755947
1669502679963707600,4.887707763671875,-0.047690556457638734,-0.025084172374010085,0.06868260067980736
1669502679973638700,4.897638671875,-0.06131693075001239,0.023890067218616605,0.02530042720688507
1669502679983569700,4.907569580078125,0.0017804536759853363,0.006084361414983868,-0.0634819632967934
1669502679993500700,4.917500732421875,0.0768318952679634,-0.09912884807623923,-0.01494741202937439
1669502680003431700,4.927431640625,0.18397884930074213,-0.30042846920788285,0.1395751690266654
1669502680013362700,4.93736279296875,0.32885435322523116,-0.07832125704288483,-0.0370090399781242
1669502680023292700,4.947292724609375,0.40837621822953224,0.14664960092492402,-0.08373641395941377
1669502680033223700,4.9572236328125,0.2812041287779808,0.31671397970691323,-0.19556341556720436
1669502680043154700,4.96715478515625,-0.1572808119893074,0.04782411970943212,-0.08992569705359638
1669502680053085700,4.977085693359375,-0.40774259650111194,-0.16581687740534543,0.09080313747525215
1669502680063016700,4.9870166015625,-0.3276800487488508,-0.08761676252409815,0.10638513934742659
1669502680072947700,4.99694775390625,-0.17323299888074398,-0.042582346598431464,0.1142175865387544
1669502680082878500,5.00687841796875,-0.0006529109507799148,-0.03520487663298845,0.07493070128913969
1669502680092809700,5.016809814453125,0.12498539306223391,-0.038568800108134745,0.04261259560622275
1669502680102739700,5.02673974609375,0.19764964725673198,-0.027412469191104172,0.10765567073989658
1669502680112670700,5.036670654296875,0.23574995307028293,-0.021647914315015077,0.2171227748159319
1669502680122601700,5.046601806640625,0.2364917113482952,-0.09129808138534426,0.40452823756448925
1669502680132532500,5.056532470703125,0.18290157545804978,-0.23260025686770677,0.6058515318326652
1669502680142463700,5.066463623046875,0.12457038252055644,-0.3802499016806483,0.7543019716344773
1669502680152394800,5.076394775390625,0.10761574058830738,-0.4828437224537134,0.7205828035145998
1669502680162325500,5.086325439453125,0.12910861047208308,-0.4951194127894938,0.5676905818730592
1669502680172256800,5.0962568359375,0.13305413322746754,-0.4547613911770284,0.4675315139662474
1669502680182186500,5.1061865234375,0.042940147060155864,-0.39740941853523254,0.381659987674281
1669502680192117800,5.11611767578125,-0.003945522755384445,-0.24673326550796626,0.4337913761235773
1669502680202048800,5.126048828125,-0.05915887593328952,-0.09876505626514553,0.6025065322536974
1669502680211979500,5.1359794921875,-0.11707973450422286,-0.052935179112851616,0.800312685246393
1669502680221910800,5.145910888671875,-0.1603741018295288,-0.0848741858176887,0.8428953241057694
1669502680231841800,5.155841796875,-0.15787001005411147,-0.16687011278532443,0.8365935936130583
1669502680241772500,5.1657724609375,-0.21085341222286222,-0.2430442017316818,0.8833545410703867
1669502680251702800,5.175702880859375,-0.2117126594007015,-0.4228925270989537,0.9867480608537793
1669502680261633500,5.185633544921875,-0.2379471708536148,-0.6201203687470406,1.024187053214386
1669502680271564800,5.195564697265625,-0.19209142860770223,-0.6667034754194319,1.017566831357032
1669502680281495800,5.205495849609375,-0.06424713898301124,-0.6088417996898293,1.1501683985114097
1669502680291426600,5.215426513671875,0.04687222581207752,-0.44447497496232385,1.2564720335878432
1669502680301357800,5.22535791015625,0.10232874009609222,-0.2706238441832363,1.464937089369446
1669502680311288600,5.23528857421875,0.14161094917058945,-0.2683712429508567,1.5927223422832786
1669502680321219600,5.245219482421875,0.18893793301284312,-0.3204039202660322,1.5140551944121718
1669502680331149600,5.255149658203125,0.21721710203588007,-0.29741715856269,1.4228051899522542
1669502680341081300,5.265081298828125,0.2530816116213798,-0.18676380384415386,1.2306509252414106
1669502680351012400,5.275012451171875,0.3357926280558109,-0.14265483220033348,1.1523493227470665
1669502680360943400,5.284943359375,0.44764965947568414,-0.07267755206748842,1.1553567609347402
1669502680370874400,5.294874267578125,0.717361503380537,0.165750534170866,1.4792267498761416
1669502680380805400,5.304805419921875,0.916031141334772,0.24923699195720253,1.789172989013791
1669502680390736400,5.314736328125,0.9620622401475906,0.10088438650667667,1.9938491739064454
1669502680400666400,5.324666259765625,0.9894120193660259,-0.1398554838053882,2.058970757636428
1669502680410597400,5.334597412109375,0.9420032024592161,-0.22633549738451836,1.6099406035877764
1669502680420528400,5.3445283203125,0.8812596876829862,-0.14000913999713957,1.0103840802460908
1669502680430459100,5.354459228515625,0.5789128176331519,-0.004644537870213389,0.2885721733279526
1669502680440390400,5.364390380859375,0.3883768017739057,-0.0007427811913192271,0.1469216958645731
1669502680450321400,5.3743212890625,0.1321925479620695,0.006593699176609516,-0.4342926036439836
1669502680460252200,5.384252197265625,-0.2250543715327978,0.06955649743750691,-1.2864406170025466
1669502680470183400,5.394183349609375,-0.5334405217468738,0.06149944771006703,-1.639910940568149
1669502680480113200,5.404113037109375,-0.5272340683221817,-0.03085574151277542,-1.044121076283604
1669502680490044400,5.41404443359375,-0.5765642086803913,-0.16311576522048563,-0.8605415284987539
1669502680499975400,5.423975341796875,-0.8235124321132898,-0.31911629160828886,-0.5912508326154202
1669502680509906200,5.43390625,-0.9449041845977306,-0.27906521705314513,-0.8160103859201073
1669502680519837400,5.44383740234375,-0.9814730430603027,0.002111987185291946,-1.1143353069774806
1669502680529768400,5.4537685546875,-0.9306184696137905,0.22656148816011845,-1.1388021511707453
1669502680539699200,5.46369921875,-0.7307838795334101,0.26128614352811125,-0.9897759573075919
1669502680549630500,5.47363037109375,-0.37062545650601386,0.2589373884448781,-0.5509732558280229
1669502680559560200,5.483560302734375,-0.027177345260977745,0.280877381041646,0.04478920899294316
1669502680569491500,5.493491455078125,0.13879180009663103,0.36296642965283243,0.5379276040330528
1669502680579422500,5.50342236328125,0.28925241067707536,0.36306824605949223,1.1238840565674006
1669502680589353200,5.513353271484375,0.10278408264815807,0.23363182840514926,1.5076225310161708
1669502680599284500,5.523284423828125,-0.1915571756005287,0.07547646207101642,1.6227338880568742
1669502680609215200,5.53321533203125,0.14236907406151295,-0.10716774109248071,2.443721185606718
1669502680619146200,5.543146240234375,0.6220201379537582,-0.29502352315811436,2.80178000600636
1669502680629077500,5.553077392578125,0.09662965167164803,-0.30065488010859115,1.7978852877795695
1669502680639007200,5.56300732421875,-0.16283376994132995,-0.02985060132453218,1.1872254788823424
1669502680648938500,5.5729384765625,-0.287872939017415,0.23135193730704484,0.862446704532951
1669502680658869200,5.582869140625,0.48899464629888534,0.29373607716346156,1.5195456085219978
1669502680668800300,5.59280029296875,0.3279249634206295,0.09301922435583546,0.9953718045532702
1669502680678731500,5.6027314453125,0.15875614523887632,-0.10869838472586124,0.8326859917152672
1669502680688662300,5.612662353515625,0.3457183942645788,-0.31789719814211126,0.9864281812496483
1669502680698593300,5.62259326171875,0.35870471708774565,-0.5694816300082951,1.0511231370653957
1669502680708524500,5.632524658203125,0.03885024739801884,-0.4742768965732306,1.010719961136952
1669502680718454300,5.642454345703125,-0.12914835796058177,-0.20857142049921676,1.1826292371332645
1669502680728385500,5.652385498046875,-0.06870645647943019,0.09622198418620974,1.4614900176554917
1669502680738316300,5.66231640625,0.17152268783152103,0.4221416721990332,1.5808362357869743
1669502680748247300,5.672247314453125,0.5306581975519656,0.6138727795943617,1.26224550242275
1669502680758178600,5.682178466796875,0.9470230764478444,0.649134427915886,0.830689630266279
1669502680768109300,5.692109375,1.3587953668564556,0.46182058897353706,0.6039595075409859
1669502680778040300,5.702040283203125,1.6383067202419042,0.2781800499827601,0.5856199140563607
1669502680787970300,5.71197021484375,1.7042594940990208,0.16752857669405638,0.8547743432741611
1669502680797901300,5.7219013671875,1.5888351255863904,0.01620124801537022,1.1702660877097397
1669502680807832600,5.73183251953125,1.29366150816679,-0.08365321092167868,1.4066867065832018
1669502680817763300,5.741763427734375,0.7301426590204239,-0.08753175112176687,1.3016229885652661
1669502680827694300,5.7516943359375,0.38135201770365235,-0.14039476004755125,1.1471293961416928
1669502680837625300,5.761625244140625,0.3846411223769188,-0.18093747231084853,0.38531401666980236
1669502680847556400,5.771556396484375,0.1381266141861677,0.39232597779110073,-0.31048045561220494
1669502680857487400,5.7814873046875,-0.09728665427565573,0.7016369146998971,-0.30847857773788273
1669502680867417300,5.791417236328125,-0.3651899874538183,0.3689385628649965,-0.7237108724072575
1669502680877348400,5.801348388671875,-0.8478238665491342,0.3361504650501534,-1.5163871444910764
1669502680887279400,5.811279296875,-1.0007610963761806,0.4241589303055778,-1.2106650989197194
1669502680897210400,5.82121044921875,-1.0848282035946846,0.3242294699035585,-0.9463942770250141
1669502680907141400,5.831141357421875,-1.2501000143378973,0.13970261306492612,-1.3138286824047565
1669502680917072400,5.841072265625,-1.2725064919352531,0.17110877326838672,-1.591993005095422
1669502680927003400,5.85100341796875,-1.0298141723811627,0.31809615478031333,-1.6842498485103248
1669502680936934400,5.860934326171875,-0.5734253261327743,0.33322635776437814,-1.774597205042094
1669502680946864400,5.870864501953125,-0.14658990662693977,0.45664322286825626,-1.836465047673136
1669502680956795400,5.88079541015625,0.2538584412127733,0.6525546846881508,-1.5381331123530864
1669502680966726400,5.890726318359375,0.44377603291273116,0.5309354435907676,-1.5085935680054128
1669502680976657400,5.900657470703125,0.3965735522329807,0.3983853143626824,-1.7610395120717584
1669502680986588400,5.91058837890625,0.24443127217590807,0.39025461487714197,-1.9237302202805875
1669502680996519400,5.92051953125,-0.04898118079006672,0.34466161522064354,-1.7820194639973341
1669502681006450400,5.930450439453125,-0.3234188841730356,0.13987462689727545,-1.412738553968072
1669502681016380400,5.94038037109375,-0.2864274163842201,0.04851115212552249,-1.242370004607737
1669502681026311400,5.9503115234375,0.013381459620594978,0.15013883128017186,-1.5702243870101869
1669502681036242200,5.9602421875,0.16242051296532153,0.32409554132558405,-1.8411042517811058
1669502681046173400,5.97017333984375,0.08193944754004479,0.33224143838025627,-2.0939603840835392
1669502681056104400,5.9801044921875,-0.005682721811532974,0.03673515494018793,-2.2073437482878564
1669502681066035200,5.99003515625,-0.07175006195902824,-0.21613668638803063,-2.06968065996021
1669502681075966500,5.999966552734375,-0.16495207726955413,-0.3007042904745787,-1.9892977942124008
1669502681085897500,6.0098974609375,-0.2968149548858404,-0.2009414553437382,-1.93659437802881
1669502681095827500,6.019827392578125,-0.24096856450140475,0.0010869184538722038,-1.694732664079964
1669502681105758500,6.029758544921875,-0.07705927428305148,0.1396744281500578,-1.680032523076236
1669502681115689200,6.039689208984375,0.03458557569086552,0.16347382141053676,-1.9257140875741838
1669502681125620500,6.049620361328125,0.09524725740253925,0.0749679280269891,-2.1805543794311584
1669502681135551500,6.059551513671875,0.015288754546642302,-0.04548895476013422,-2.3147874933101233
1669502681145482200,6.069482177734375,-0.18583353725671767,-0.16525946271829306,-2.4264349736325443
1669502681155413500,6.07941357421875,-0.3686614629566669,-0.12937968249842524,-2.462246437856555
1669502681165344500,6.089344482421875,-0.41141164040267464,0.0933283451039344,-2.3497318193107843
1669502681175274500,6.0992744140625,-0.2985451396793127,0.33764643922895193,-2.119961525171995
1669502681185205500,6.10920556640625,-0.045026890206336975,0.4711646828368306,-1.8784249515242875
1669502681195136300,6.11913623046875,0.12565817775726318,0.47670609648153184,-1.4468582657128572
1669502681205067500,6.129067626953125,0.15638590897619722,0.03297003025300801,-0.5229715885721147
1669502681214998300,6.138998291015625,0.4591629871368408,-0.7258692925501614,-0.27967209690511224
1669502681224929300,6.14892919921875,0.6193611478775739,-0.5972351677220314,0.013959990160912275
1669502681234860500,6.158860595703125,0.4675596440821886,0.05078472308069467,0.26298198766056446
1669502681244790300,6.168790283203125,0.10188567250370979,0.23663692850526422,0.2503521135922521
1669502681254721300,6.17872119140625,-0.20359949557185172,0.2644853048956021,0.21091361797749994
1669502681264652300,6.18865234375,-0.3470990349680185,0.1855007981710136,0.2713586247311905
1669502681274583300,6.198583251953125,-0.40116906332969665,0.12785824508480728,0.2838165762986988
1669502681284514300,6.208514404296875,-0.3039607349872589,0.39995409804936494,-0.015189385825395583
1669502681294445300,6.2184453125,-0.13337503574490547,0.008947057369723916,0.1673612573031336
1669502681304376300,6.228376220703125,0.04833469958007335,-0.1713902205582708,0.14117938935291022
1669502681314307300,6.238307373046875,0.23530396286845207,-0.12573219284154474,0.07311882956158369
1669502681324237300,6.2482373046875,0.29275486584007737,-0.16750420943778008,0.13229213587902486
1669502681334168300,6.258168212890625,0.2342436401605606,-0.13923052030745892,0.18728274968434125
1669502681344098300,6.268098388671875,0.10341711985468864,-0.041241234187781806,0.17476729577593506
1669502681354029300,6.278029296875,-0.034140170010924335,0.016811982058547437,0.09265212634280323
1669502681363960300,6.287960205078125,-0.1027870052576065,0.00268759511616081,0.019761077655106783
1669502681373891300,6.297891357421875,-0.07832417965233325,-0.015627667644806206,-0.023450177964009344
1669502681383822000,6.307822021484375,-0.006169628545641899,-0.014558905902132392,-0.03675064477026462
1669502681393753300,6.31775341796875,0.049662148791551584,-0.005009279529377818,-0.030625659083947536
1669502681403683300,6.327683349609375,0.08335106790363789,0.0017881985910236835,-0.026083193348720668
1669502681413614300,6.3376142578125,0.07588087815344333,-0.004814706805348396,-0.02851447561625391
1669502681423545300,6.34754541015625,0.04566051193475723,-0.018390739149972794,-0.017241057658195495
1669502681433476000,6.35747607421875,0.025470541343092918,-0.02449329380877316,-0.02390058861263096
1669502681443407400,6.367407470703125,0.011550737062096595,-0.005116831557080149,-0.04152111057508737
1669502681453338400,6.37733837890625,0.019299159231781958,0.00944368178024888,-0.05731741278506815
1669502681463269000,6.38726904296875,0.02192073990702629,0.02244954955410212,-0.08855930407121777
1669502681473199400,6.397199462890625,0.03858838159143924,0.046712687868811185,-0.11905136337075382
1669502681483130000,6.407130126953125,0.03815115921795368,0.03868599674701691,-0.14622165783643723
1669502681493061400,6.417061279296875,0.04366027802824974,-0.0003909720789641142,-0.09423895714282989
1669502681502992400,6.426992431640625,0.03698562256991863,-0.046185412591695785,-0.008248444113694131
1669502681512923100,6.436923095703125,0.014434183543920516,-0.10886603291034698,0.06753218853566795
1669502681522854400,6.4468544921875,0.012716273710131645,-0.1463099937070161,0.16515823083352296
1669502681532785400,6.456785400390625,0.007790507745742798,-0.1414304049719125,0.20188509286940096
1669502681542716200,6.466716064453125,0.006314589974284171,-0.13487100992370396,0.1807171440910548
1669502681552646400,6.476646484375,0.03463759813904762,-0.11330814354363829,0.10888090168591588
1669502681562577200,6.4865771484375,0.017198387560248374,-0.04177322217263281,0.04612937155552208
1669502681572508400,6.49650830078125,-0.024570962154865265,-0.014858984827250241,-0.003386354502663016
1669502681582439400,6.506439453125,0.0024275194078683853,-0.014248342115618288,-0.021474092118069527
1669502681592370200,6.5163701171875,0.06098959849178791,-0.0202850649965927,-0.01962605309858918
1669502681602301400,6.526301513671875,0.07734452096521854,-0.02947071689516306,-0.010017463080212473
1669502681612232200,6.536232177734375,0.04373217422068119,-0.027095621794275937,0.0036508506577461954
1669502681622163200,6.5461630859375,0.005344868159294128,-0.012109101597219705,0.007070449842885136
1669502681632093400,6.556093505859375,0.007813888621330261,-0.015566950433515012,-0.0012741115890443325
1669502681642024200,6.566024169921875,0.009696633628010749,-0.0215603090967983,0.004262224021740257
1669502681651955500,6.57595556640625,0.02338029106557369,-0.005806348191201687,-0.003346570481546223
1669502681661886200,6.58588623046875,0.03194645935893058,-0.01629705480635166,-0.009822196236439049
1669502681671817200,6.595817138671875,0.0374748673915863,-0.015323752794787288,-0.0270744328757748
1669502681681748500,6.60574853515625,0.015312135422229766,-0.0075624711435288185,-0.028862302673235533
1669502681691679200,6.61567919921875,0.0051198272317647935,-0.00839884890243411,-0.021047756464779376
1669502681701610200,6.6256103515625,-0.006134557232260703,-0.014921382538974284,-0.008950893294624984
1669502681711540200,6.635540283203125,0.008203180199861526,-0.01164433362968266,-0.007228636079281568
1669502681721471200,6.64547119140625,0.028089199408888814,-0.01074080891869962,0.004365647863596678
1669502681731402500,6.655402587890625,0.03256196090877056,-0.01622070163451135,0.00037486119437962767
1669502681741333200,6.665333251953125,0.0376186597764492,-0.011987703707255423,-0.011089914617314935
1669502681751264300,6.67526416015625,0.02757657371163368,-0.005426847354322671,-0.005989449673146009
1669502681761195500,6.685195556640625,0.021869886502623555,-0.009379530502855777,0.002153817033022642
1669502681771126300,6.695126220703125,0.01824117461144924,-0.010884491705708205,0.0011218801693990827
1669502681781057300,6.705057373046875,0.040354806742072105,-0.006738806735724211,0.001838759734481573
1669502681790987300,6.7149873046875,0.032092589831352235,-0.014357136252336204,-0.010438172710314393
1669502681800918300,6.724918212890625,0.030120412975549696,-0.016262860275804994,-0.006306589330919087
1669502681810849500,6.734849609375,0.014678513693809509,-0.010660144897922873,-0.0004762757422402501
1669502681820780300,6.7447802734375,0.017051088044047355,-0.01883344141617417,0.012765483146719634
1669502681830711300,6.754711181640625,0.04172609509527683,-0.01245700171943754,-0.0014533406134694814
1669502681840642300,6.764642333984375,0.025364742881059645,-0.015463234330713747,-0.013264007253386079
1669502681850573300,6.7745732421875,0.021825462839007378,-0.00989369057007134,-0.019160262217745184
1669502681860503600,6.784503662109375,-0.0003355155646800995,0.14911058421097695,-0.07085917753390968
1669502681870434300,6.794434326171875,0.14766191977262497,0.05094532046988606,-0.05369443651493638
1669502681880365300,6.804365234375,0.08678221139609814,-0.20994572279341517,0.052963601489737624
1669502681890296300,6.81429638671875,-0.0915197613120079,-0.18149952664040028,0.06146408413574099
1669502681900227300,6.824227294921875,-0.21818916193842885,-0.010102547547779978,0.02671922622993588
1669502681910158300,6.834158447265625,-0.0992617537409067,-0.01505326529033482,0.013731588232517241
1669502681920089300,6.84408935546875,0.14807634579241274,-0.04603321770466864,0.001003843280300498
1669502681930020400,6.854020263671875,0.20646189926564693,0.03288688201420009,-0.05467665248531848
1669502681939950300,6.863950439453125,0.1341097797602415,0.05299414275847375,-0.04425203337632119
1669502681949881300,6.87388134765625,0.05571838009059429,-0.023432715372554955,-0.0021948796957731247
1669502681959812400,6.883812255859375,-0.027518706044554708,-0.061100511520355935,0.025527495694719255
1669502681969743400,6.893743408203125,-0.10346037447452544,-0.03730685388091951,0.024999599363096058
1669502681979674400,6.90367431640625,-0.060362406504154205,0.01954348938167095,-0.009320530324615538
1669502681989605400,6.91360546875,0.05799743093848228,0.006496485879831016,-0.029293058773316442
1669502681999536400,6.923536376953125,0.1265548343360424,-0.04135379118416458,-0.01563607014697045
1669502682009467400,6.93346728515625,0.05613339063227176,-0.053011276556365186,-0.0012860212225466966
1669502682019397400,6.9433974609375,-0.03390753029882908,-0.011797770625725387,0.012504786383919417
1669502682029328400,6.953328369140625,-0.04570727368593216,-0.006874123553186655,0.011336327126435935
1669502682039259400,6.96325927734375,0.03408113330006599,-0.018438085423037407,-0.012048749712109565
1669502682049190400,6.9731904296875,0.10086509728431702,-0.0193453364610672,-0.014484452426433562
1669502682059121400,6.983121337890625,0.06827449480295181,-0.01874956252500415,-0.012492767152562737
1669502682069052200,6.99305224609375,0.005130933147668838,-0.015319332347996532,-0.018231895326450465
1669502682078983400,7.0029833984375,-0.009695464584231376,-0.014444485742226242,-0.0049348991189152
1669502682088914400,7.01291455078125,0.0009141922354698181,-0.02086461845021695,-0.007817870676703751
1669502682098844400,7.022844482421875,0.0326385332763195,-0.01918839233368635,-0.004083944845385849
1669502682108775400,7.032775390625,0.045049102038145064,-0.010915690561570227,-0.007133651272207498
1669502682118706200,7.0427060546875,0.032766543570160865,-0.01404967773836106,-0.006012940146587788
1669502682128637400,7.052637451171875,0.016124036327004432,-0.016088891948387026,-0.007627937595173716
1669502682138568400,7.062568359375,0.017745500048995017,-0.011016118728742003,0.003162007694877684
1669502682148499200,7.072499267578125,0.04063070107400417,-0.031153445817716417,-0.0003247384423390031
1669502682158430500,7.082430419921875,0.04034077821671962,-0.034634383268654347,-0.005422682635858655
1669502682168361500,7.092361572265625,0.018314239847660063,-0.012453531120717525,-0.006684701928310096
1669502682178291200,7.102291259765625,0.0030301614761352536,-0.009878639131411909,-0.004334156746789813
1669502682188222500,7.112222412109375,0.020374679508805275,-0.02089055660907179,-0.004494206146709621
1669502682198153200,7.1221533203125,0.023675474619865414,-0.019093992048501967,0.009591017829068004
1669502682208084200,7.132084228515625,0.009904723420739173,-0.021605974869430063,0.00039561172146350144
1669502682218015500,7.142015380859375,-0.0005845218896865845,-0.0268705443341285,-0.014667298180051146
1669502682227946200,7.1519462890625,0.03397358127236366,-0.023320121843554076,-0.009208521317504346
1669502682237877200,7.161877197265625,0.05088964475989342,-0.03206519036777317,0.001519903043657541
1669502682247807200,7.17180712890625,0.036704467540979384,-0.02550166713371873,-0.004356697372160851
1669502682257738200,7.18173828125,0.0002326397120952606,-0.031711298896186055,-0.004354505415074527
1669502682267669200,7.191669189453125,-0.023095628905296324,-0.020185111753456293,-0.00890515445675701
1669502682277600300,7.201600341796875,0.00279459915459156,-0.011058240837417542,-0.00943246626649052
1669502682287531300,7.21153125,0.07208674656748772,-0.011172405268996953,-0.004961275669187307
1669502682297462300,7.221462158203125,0.07103519168794155,-0.019071378357894717,-0.001295117844454944
1669502682307393300,7.231393310546875,0.026581717455387115,-0.02030775175243616,-0.014776238447241484
1669502682317324300,7.24132421875,0.006969839012622833,-0.014635405204445123,-0.004363748167455196
1669502682327254300,7.251254150390625,0.02029460000991821,-0.02138973830286413,-0.0010549889456480741
1669502682337185300,7.261185302734375,0.031219314128160473,-0.01921652244962752,-0.0005204436775296926
1669502682347116800,7.27111669921875,0.019984803408384322,-0.016239114074036477,-0.01128985763620585
1669502682357047800,7.2810478515625,0.006047463470697402,-0.01351575352475047,-0.014324110765568911
1669502682366978600,7.290978515625,0.020088263782858846,-0.013425919816829264,-0.005422865298949182
1669502682376909800,7.300909912109375,0.0323246450215578,-0.01407451991867274,-0.003875124400295317
1669502682386840600,7.310840576171875,0.039784897899627684,-0.01771601822618395,-0.01693319728542119
1669502682396771600,7.320771484375,0.03470423363447189,-0.02718015827257186,0.002037679840065539
1669502682406701800,7.330701904296875,0.011964578559994696,-0.03058313511647284,-0.009890402634441853
1669502682416632600,7.340632568359375,-0.006764087307453155,-0.01394760560337454,-0.017221183913946152
1669502682426563800,7.350563720703125,0.012497662523388861,-0.015512443767301737,-0.011723609410971402
1669502682436494600,7.36049462890625,0.05226502476632595,-0.022098507626727222,-0.006349880483373999
1669502682446425600,7.370425537109375,0.04684826041460037,-0.027972148900479075,-0.002716711612790823
1669502682456356900,7.38035693359375,0.026630817294120788,-0.021648864163085816,-0.00988452088292688
1669502682466287600,7.39028759765625,0.0029477438896894454,-0.013618921638280152,-0.005921425938233733
1669502682476218600,7.400218505859375,-0.03562193300127983,0.03154883834347129,-0.03146488638706505
1669502682486148600,7.410148681640625,0.016917232531309126,0.12067392307128756,-0.16744992196727543
1669502682496079600,7.42007958984375,0.30630817489624024,0.08586820182371883,-0.06935637175552546
1669502682506011000,7.430010986328125,0.033433483046293254,-0.38600598098933697,0.28163718643300234
1669502682515941600,7.439941650390625,-0.2490834818959236,-0.2816525301326066,0.20430837449356912
1669502682525872600,7.44987255859375,-0.22603636830747126,0.13071224627643824,-0.08234517879672348
1669502682535804000,7.459803955078125,-0.04903787941336631,0.09985898898169397,-0.11036039965394884
