time,seconds_elapsed,z,y,x
1669700372143626000,0.0476259765625,0.03750233992040157,0.02830667808447033,-0.07421456150957383
1669700372153557000,0.057556884765625,0.03450841880142688,0.06317012086864561,-0.06595558686871081
1669700372163487000,0.067487060546875,0.022537410500645637,0.07361607502661645,-0.05933634682546835
1669700372173418000,0.07741796875,0.028521161085367203,0.04093031420824118,-0.03757713588939514
1669700372183348000,0.087347900390625,0.002034136176109314,-0.0037415154827293005,-0.006653489372716285
1669700372193279000,0.097279052734375,0.0027817396730184553,-0.045689244838897136,0.010676735273119993
1669700372203209000,0.107208984375,0.004874912559986114,-0.0800287002815865,0.018814554052613675
1669700372213140000,0.117139892578125,-0.006497545325756073,-0.0667095835737884,0.032669359956134576
1669700372223070000,0.127070068359375,-0.019815292060375213,-0.05312636343655176,0.025857928658905436
1669700372233001000,0.1370009765625,0.00353051221370697,-0.046093249929370354,0.03485486903536366
1669700372242931000,0.146930908203125,0.0117640875518322,-0.033706144241522996,0.020656247812986837
1669700372252862000,0.156862060546875,-0.006788637226819992,-0.022481762190116567,0.01708670962998876
1669700372262792000,0.1667919921875,0.011617957079410553,0.002942337062209844,-0.01250846362026059
1669700372272723000,0.176722900390625,0.027479543077945708,0.03925418855641037,-0.0441553772019688
1669700372282653000,0.18665283203125,0.029273440757393836,0.03776693654018454,-0.058683289744216015
1669700372292584000,0.196583984375,0.03959901993870735,0.043075573475472625,-0.07049225305081344
1669700372302514000,0.206513916015625,0.04707914656102657,0.021754598693037405,-0.06588665895150042
1669700372312445000,0.21644482421875,0.03390928386449814,-0.001019634504476562,-0.04924490976016968
1669700372322375200,0.226375244140625,0.010265957948565482,-0.012098918129922821,-0.021650072022771926
1669700372332306000,0.236305908203125,0.012359715357422828,-0.015209168238099664,0.0007684453555382788
1669700372342236200,0.246236083984375,0.01250818391740322,-0.02539558554389514,0.003533219052379718
1669700372352167000,0.2561669921875,-0.0035042087286710735,-0.0374368826019112,0.02092306150603108
1669700372362097200,0.26609716796875,-0.005748188263177871,-0.0464776826696936,0.02566311847285833
1669700372372028000,0.27602783203125,0.0005360065728425979,-0.050217170592118054,0.015249472849024458
1669700372381958000,0.2859580078125,0.018942016357183455,-0.04013732806649059,-0.005555170458706561
1669700372391889000,0.295888916015625,0.008467384093999861,-0.013361841604672372,-0.019101720980519894
1669700372401819000,0.30581884765625,0.030164836639165877,0.011951837809430434,-0.045304017514130095
1669700372411750000,0.31575,0.0358498965382576,0.021931014705868435,-0.05204307541160378
1669700372421679900,0.325679931640625,0.02612228325009346,0.025261328172357753,-0.04411893134883139
1669700372431611100,0.335611083984375,0.012353870138525963,0.01455572756435722,-0.02784167722149286
1669700372441540900,0.345540771484375,0.014299158987402916,-0.00561336463605985,-0.022311670886795035
1669700372451472100,0.35547216796875,0.00951017114520073,-0.013358042212389409,-0.0036578649204224347
1669700372461401900,0.36540185546875,0.0012795184165239333,-0.02087944156001322,0.018219658041029468
1669700372471333000,0.3753330078125,-0.002611643803119659,-0.0298429842736572,0.02726577017981326
1669700372481262800,0.385262939453125,0.0012795184165239333,-0.0462201459783595,0.025241299164481458
1669700372491194000,0.395194091796875,-0.0008148235142230987,-0.05713724304572679,0.014574535012815613
1669700372501123800,0.405123779296875,0.009960837522149085,-0.04583620642838068,0.001598787240945967
1669700372511055000,0.41505517578125,0.021783377262949943,-0.013837934683822094,-0.015299249682837399
1669700372520984800,0.42498486328125,0.018791209709644315,0.01297169150961563,-0.03128860737155192
1669700372530916000,0.434916015625,0.015349544823169707,0.020424035075865685,-0.03206019681553589
1669700372540845800,0.444845703125,0.033306641796231266,0.02677988864229992,-0.052690374038927255
1669700372550776800,0.45477685546875,0.023130115696787832,0.009675079383328556,-0.029727739846555048
1669700372560706800,0.464706787109375,0.018640987583994864,0.011068497369950636,-0.029387888316763564
1669700372570637800,0.474637939453125,0.026121114206314085,0.008436641895864159,-0.03043476245461497
1669700372580567800,0.48456787109375,0.020283494094014167,0.005190161654772237,-0.0042410807690117505
1669700372590498800,0.494498779296875,0.018636895930767058,-0.01594080698089674,-0.0009258552737999707
1669700372600429000,0.504428955078125,0.0027747254103422164,-0.050172765194810925,0.001419867602130398
1669700372610359800,0.51435986328125,0.03045651306211948,-0.05286106356387026,0.00962353185918182
1669700372620290000,0.5242900390625,0.01923427730202675,-0.02837292085424997,0.0007417354451259597
1669700372630220800,0.534220703125,-0.03328735257387161,-0.006249516248283907,-0.0015773026365670374
1669700372640151000,0.544151123046875,0.01040682772397995,0.001325266387546435,-0.003029688835388515
1669700372650081800,0.554081787109375,0.03674538407325744,-0.016904747509071602,-0.016517117023019817
1669700372660012000,0.564011962890625,0.012803367471694945,-0.02714973573484458,-0.02231783119952306
1669700372669942800,0.57394287109375,0.009961422044038772,-0.015759933988656848,-0.02305161623363383
1669700372679873000,0.583873046875,0.019688450810313222,0.005710185207193717,-0.02972286730861524
1669700372689803000,0.593802978515625,0.013404255974292754,0.012134400435257703,-0.023543594151793513
1669700372699734000,0.603734130859375,0.0240291103631258,0.00008400675533339381,-0.01939900516035268
1669700372709665000,0.6136650390625,0.030015783557295797,-0.007102963872998952,-0.01930693839614978
1669700372719595000,0.623594970703125,0.0018844985723495483,-0.008931731936428695,-0.010189699533203382
1669700372729524700,0.633524658203125,-0.008141805401444435,-0.0047286633565556254,-0.005524951133667491
1669700372739456000,0.6434560546875,0.0077197805970907205,0.003691164401825517,-0.008847113259742035
1669700372749385700,0.6533857421875,0.041087212669849396,-0.007213292379677295,-0.008050156479061115
1669700372759317000,0.66331689453125,-0.00829495013654232,-0.01607768556778319,-0.013391293744731228
1669700372769247000,0.6732470703125,0.04004033396542072,-0.022918674036348237,-0.014843905989127232
1669700372779178000,0.683177978515625,0.049915831291675566,-0.02602881454667076,-0.012592836843419353
1669700372789107700,0.693107666015625,-0.024603695380687712,-0.009529085908224806,-0.031508732378657436
1669700372799039000,0.7030390625,0.028965982243418693,-0.014719685954414308,-0.01711361818651203
1669700372808969000,0.712968994140625,-0.009488543835282325,-0.0022530852895695716,-0.026652339572762137
1669700372818900000,0.72289990234375,0.017297756281495092,0.005644335163058713,-0.00851054053242551
1669700372828830000,0.732829833984375,0.011612111860513686,0.00037000235617160797,-0.005914783851604443
1669700372838761000,0.742760986328125,0.01625087757706642,0.0008141293944790959,-0.001770678917353507
1669700372848691000,0.75269091796875,0.008918634992837906,-0.0044489970318041736,-0.007117035780835431
1669700372858622000,0.7626220703125,0.0072714523077011105,-0.00793151451847516,-0.013695258827100041
1669700372868552000,0.772552001953125,0.01490238557755947,-0.014559216429386287,-0.019286747274780646
1669700372878483000,0.78248291015625,0.02777005045711994,-0.010842406129650772,-0.01590634758886881
1669700372888413000,0.792412841796875,0.01879237875342369,-0.01313644448411651,-0.009360407960566227
1669700372898343700,0.80234375,0.0054763855844736095,-0.016341332339495418,-0.010572496297222097
1669700372908274000,0.81227392578125,0.008171616017818451,-0.016402743670530615,-0.003259814646700397
1669700372918205000,0.822204833984375,0.011912556111812592,-0.015239316781191154,-0.0061020135193946765
1669700372928135000,0.832135009765625,0.01774842265844345,0.0022830785690341146,-0.0021501215303724166
1669700372938066000,0.84206591796875,0.005328501546382904,0.014063669731095432,-0.004668318321311381
1669700372947996000,0.851995849609375,0.03660217621028423,0.015318227236298844,-0.011923214503144845
1669700372957927000,0.861927001953125,0.02717442265152931,-0.004801892989547923,-0.032927634149696676
1669700372967857000,0.87185693359375,0.006223989081382751,-0.01352662197863683,-0.027667297902121208
1669700372977788000,0.881787841796875,0.03061433397233486,-0.00883934094524011,-0.016887227835401426
1669700372987718000,0.8917177734375,0.034953824481368065,0.0006372201913036405,-0.015927100399241317
1669700372997649000,0.90164892578125,-0.0005108721315860748,-0.0003568780131172389,-0.01577256057478953
1669700373007579000,0.911578857421875,0.006522095245122909,-0.0012639737875200807,-0.004119461400050204
1669700373017510000,0.921510009765625,0.02088672068417072,-0.009224339941143989,0.00427014132507029
1669700373027439900,0.93143994140625,0.011009469792246818,-0.01796861388091929,-0.006785694067773874
1669700373037371000,0.941370849609375,0.015498597905039786,-0.016617911658016963,-0.021294627914915324
1669700373047300900,0.95130078125,0.030012860947847365,-0.01981914625158533,-0.024581643379083834
1669700373057232000,0.96123193359375,0.025972645646333694,-0.008470434567611663,-0.00979656403826084
1669700373067161900,0.971161865234375,-0.006797989577054977,-0.004030725953960791,-0.003393896205013152
1669700373077092900,0.9810927734375,-0.007246902388334274,-0.009279120601993054,-0.00435750679798075
1669700373087023000,0.991023193359375,0.032706337815523144,-0.018473348532663657,-0.0007595017139683478
1669700373096953900,1.000953857421875,0.0172930801063776,-0.01962570603871718,-0.004083125144767109
1669700373106884000,1.010884033203125,0.025223873105645177,-0.015182207165937869,-0.0052511985264718525
1669700373116814800,1.02081494140625,0.004871989950537681,0.008409269831748679,-0.013387738664331844
1669700373126745000,1.0307451171875,0.0466202968776226,0.0012208744313102215,-0.019960694163723383
1669700373136675800,1.04067578125,0.012951836031675337,-0.006850002892082556,-0.032408973720588256
1669700373146606000,1.050606201171875,0.024474516043066975,-0.006536927488073706,-0.02664191636015894
1669700373156536800,1.060536865234375,0.038540450796484944,-0.009820670999633147,-0.010342696996184531
1669700373166467000,1.070467041015625,0.013550970968604087,-0.003561930265277624,-0.0026851063315523785
1669700373176397800,1.080397705078125,-0.0018622867405414581,0.006489279820909724,-0.013464039320533628
1669700373186327800,1.090327880859375,0.01414952138364315,0.0037117961979005482,-0.005869771099521312
1669700373196259000,1.100259033203125,0.03405132268369197,-0.017985437151556833,-0.014357455912744626
1669700373206188800,1.110188720703125,0.0038239422023296356,-0.02107409648243338,-0.017138752627768553
1669700373216120000,1.1201201171875,0.005469371321797371,-0.02040799725651741,-0.016016488865879364
1669700373226049800,1.1300498046875,0.0514087001979351,-0.014347007583966478,-0.011951166522572748
1669700373235981000,1.13998095703125,0.007713350856304168,0.007001010469021275,-0.019123186176945455
1669700373245910800,1.149910888671875,0.0032242227435111998,0.009058737583272159,-0.01564532888237154
1669700373255842000,1.159842041015625,0.022229367464780807,0.005066453076712787,-0.01465416242055362
1669700373265771800,1.169771728515625,0.03225391787290573,-0.000854169143922627,-0.013274633678677492
1669700373275703000,1.179703125,-0.005756371569633483,0.00485661885146983,-0.019662818612135015
1669700373285632800,1.1896328125,0.01878185735940933,0.0025649642503354697,-0.014665090239944402
1669700373295564000,1.19956396484375,0.02970364886820316,0.001389171069767326,-0.020813523017219268
1669700373305493800,1.20949365234375,0.016831892335414884,-0.0014892430439125747,-0.018125870818842666
1669700373315425000,1.219425048828125,0.010396890851855278,-0.019175404987949878,-0.01863607623014832
1669700373325354800,1.229354736328125,0.027604630762338638,-0.027413492104411123,-0.012035244059853721
1669700373335286000,1.2392861328125,0.020720131945610044,-0.02454665883067064,0.0009291432094294577
1669700373345215700,1.2492158203125,0.00620353081524372,-0.02460225234227255,0.007979538928263355
1669700373355147000,1.25914697265625,0.0068014967083930965,-0.01885112320333719,0.003872978108981624
1669700373365077000,1.269076904296875,0.007701660418510436,-0.017681540567846966,0.0014512103051762095
1669700373375007700,1.2790078125,0.003512392035126686,-0.01861933287461288,-0.005886379741027486
1669700373384938000,1.28893798828125,0.01757891131043434,-0.006301456498075276,-0.008802052558597642
1669700373394868700,1.29886865234375,0.049153614747524256,-0.006125497142970561,-0.019459720088355243
1669700373404799000,1.308799072265625,-0.005166004461050033,0.005298873593099415,-0.04036280738543719
1669700373414729700,1.318729736328125,0.026707974183559417,0.010409421539865434,-0.030114750419743357
1669700373424660000,1.328659912109375,0.013090367719531058,0.006904189897887408,-0.01924548139934195
1669700373434590700,1.3385908203125,0.028951953718066213,-0.006343176747951656,-0.015155411632201866
1669700373444521000,1.34852099609375,0.00037000235617160797,-0.02191452936194837,-0.010664761707535945
1669700373454451700,1.35845166015625,0.010993103179335594,-0.016942284774174914,-0.0022691653497575316
1669700373464382000,1.3683818359375,-0.00008066402077674865,-0.009944132982520386,-0.0037767557594692333
1669700373474313000,1.37831298828125,0.02999532529115677,-0.013850839831167831,-0.0039580705680593384
1669700373484243000,1.388242919921875,-0.009210895937681197,-0.007590875254105776,-0.007623438374925171
1669700373494174000,1.398174072265625,0.018771335965394972,-0.011118802785081788,-0.004436684397858335
1669700373504104000,1.40810400390625,0.020569325298070908,-0.0082173457225319,-0.017445535288308747
1669700373514035000,1.418034912109375,0.0332879370957613,-0.15520868189036846,-0.048365816237544636
1669700373523965000,1.42796484375,-0.03510229304134845,-0.13674158043540083,-0.01886576707497588
1669700373533896000,1.43789599609375,0.05542904175519943,-0.043747590985521674,0.037275915319961495
1669700373543827000,1.447826904296875,0.05512918202579021,0.09018011020608246,-0.04280763412113301
1669700373553757000,1.4577568359375,-0.052012511309981344,0.024440531575074417,-0.0031239315736573186
1669700373563687700,1.467687744140625,0.07248655954003333,0.09240216103657148,0.04802185250492766
1669700373573618000,1.477617919921875,-0.024331308180093762,-0.04933123633675277,-0.014365350383188341
1669700373583548000,1.4875478515625,0.03836450970768928,-0.033267725424794475,0.045256671241065485
1669700373593479000,1.49747900390625,-0.004733458262681961,-0.07589490667879581,0.06414338634759187
1669700373603410000,1.507409912109375,0.020552374163269996,0.00570494277649559,0.04626555602266453
1669700373613340000,1.51733984375,0.0004997662156820296,0.01205917977457866,0.06022339075910858
1669700373623271000,1.52727099609375,0.040755204236507414,0.004793106894893572,0.06634660461344756
1669700373633201000,1.537200927734375,0.0013993454039096832,0.016492741775233296,0.03759219874449773
1669700373643131100,1.547131103515625,0.028782442370057105,0.043184605074208224,0.08857229141695425
1669700373653062000,1.557061767578125,0.031027590948343276,0.08528914156043901,0.17559905215865
1669700373662993000,1.566992919921875,0.022049334722757337,0.08305945541276596,0.1364853863177821
1669700373672923000,1.5769228515625,0.001547229442000389,0.020880729334801434,0.15979821990402415
1669700373682854000,1.58685400390625,0.041350247520208355,0.0408585458799731,0.23087584422789512
1669700373692783900,1.596783935546875,-0.011923077505826949,0.03328528848094865,0.27074615538865326
1669700373702715000,1.60671484375,0.010222703328728676,0.01255040649077855,0.4785511763589456
1669700373712644900,1.616644775390625,0.0064805941909551615,0.02121947803618386,0.5601591999875382
1669700373722576000,1.626575927734375,0.018752046743035315,0.01714044682793319,0.4213102628761902
1669700373732505900,1.636505859375,-0.01910685153007507,0.0006769950792659073,0.3989194577720016
1669700373742436900,1.646436767578125,0.029678514426946637,-0.014181925815902649,0.3838096034562215
1669700373752367000,1.6563671875,0.057066287568211554,-0.0197048356895335,-0.01699946973795304
1669700373762297900,1.6662978515625,-0.03450900332331657,-0.04008718704814091,0.022687858671869617
1669700373772228400,1.676228271484375,0.06051438219547271,-0.0674967518961057,0.1179619058999233
1669700373782159400,1.686159423828125,-0.05156476754248142,-0.09914578094473107,0.16306049136929213
1669700373792089300,1.69608935546875,0.10795943945944309,-0.13379318809174,0.17502448540739715
1669700373802020400,1.706020263671875,0.003962473890185356,-0.199549562593922,0.15334003847427666
1669700373811950000,1.7159501953125,-0.08372750000059605,-0.12407135609039105,0.5079775061231107
1669700373821881300,1.72588134765625,0.09583470190167427,-0.06338124286867677,0.5150561027398333
1669700373831811300,1.735811279296875,-0.005766892963647842,-0.0962815140874125,0.5816968588611111
1669700373841742300,1.745742431640625,0.08177110523581504,-0.027770297052292153,0.9439940840154886
1669700373851672300,1.75567236328125,-0.08327975623309612,0.026218957690754902,1.1183733303219079
1669700373861603300,1.765603271484375,0.08431435997784137,0.03766204226044938,0.9396152844093739
1669700373871533300,1.775533203125,-0.0511082559466362,0.045937712307786566,0.6652864482283591
1669700373881464300,1.78546435546875,0.07204524551331996,-0.025081724688597023,0.4948258366703987
1669700373891394300,1.795394287109375,-0.026415128716826438,-0.06920417686849832,0.7410138163205235
1669700373901325300,1.8053251953125,0.02655482944846153,-0.05696572240372188,0.29689320775382216
1669700373911255300,1.81525537109375,0.01892740330994129,-0.07858334204517305,0.2321062628056854
1669700373921186300,1.825186279296875,-0.0038192660272121427,-0.10719564287955873,0.4152989301647991
1669700373931116300,1.8351162109375,0.09180383895039558,-0.160958495855052,0.40771421065684404
1669700373941047600,1.845047607421875,0.0636696313560009,-0.1862486391299404,0.6181297063864767
1669700373950977300,1.854977294921875,-0.07354805129170418,-0.16627532522995023,0.45107294845525175
1669700373960908300,1.864908203125,0.14193302073180675,-0.1316215705405455,0.4397049475489184
1669700373970838300,1.87483837890625,-0.06487316192686557,-0.14402442178679628,0.4940604052558541
1669700373980769300,1.884769287109375,0.018466800060868264,-0.142694004300097,0.6857102275758982
1669700373990699300,1.89469921875,-0.01595160236954689,-0.15608637804035097,0.38212552282679824
1669700374000630300,1.90463037109375,0.12276654796898365,-0.15090565093420444,0.27676738843955095
1669700374010560300,1.914560302734375,-0.034060675033926964,-0.16618943704478442,0.5289602345276624
1669700374020491300,1.9244912109375,-0.05711071123182773,-0.21495109333265572,0.6581073503792285
1669700374030421200,1.934421142578125,0.1487888779759407,-0.2476501611571759,0.6282462459269911
1669700374040352300,1.944352294921875,-0.08165887703299522,-0.26528209956279025,0.6140844495836645
1669700374050282200,1.9542822265625,0.0675298139154911,-0.3049171041303314,0.8424913464147598
1669700374060213200,1.964213134765625,0.03475450251698494,-0.2893859556625597,0.7108679766427725
1669700374070143200,1.974143310546875,0.045676878547668456,-0.30179243277115747,0.5440229252334684
1669700374080074200,1.98407421875,-0.011336217528581619,-0.3184384288793429,0.5293048101816326
1669700374090004200,1.994004150390625,0.025921207720041275,-0.2330588142901659,0.6132718910917639
1669700374099935200,2.003935302734375,0.0428209045946598,-0.031528727137204254,0.6155933197766542
1669700374109865500,2.013865478515625,0.006152677410840988,0.0989909739755094,0.3387651045279577
1669700374119796200,2.023796142578125,0.027844284737110137,0.16443305836413055,0.3282383402187377
1669700374129726500,2.0337265625,-0.007175006195902824,0.21928828228674827,0.11995269612465054
1669700374139657200,2.0436572265625,0.009136077135801314,0.17194873122386634,-0.07371085890429094
1669700374149587500,2.05358740234375,0.0131757079154253,0.11085748985535465,0.01747405927153886
1669700374159518200,2.063518310546875,-0.002692307823896408,0.08575006446992046,0.21532847527768462
1669700374169448400,2.073448486328125,-0.012422843721508979,0.07788250029943883,0.5811704603668302
1669700374179379200,2.083379150390625,0.03785772922933101,0.16620328290704636,0.7777989478822797
1669700374189309400,2.093309326171875,0.01301321083009243,0.27985817579543215,0.8766502941913902
1669700374199240200,2.103240234375,0.013614099332690238,0.21703840273441746,0.7600894689947366
1669700374209170400,2.11317041015625,0.03621288463175296,0.09135172953503205,0.3256595392392948
1669700374219101400,2.123101318359375,-0.020648235753178597,0.018192549696750937,-0.08349769156640395
1669700374229031400,2.133031494140625,0.022148118922114372,-0.10495691490890457,-0.23423689989252014
1669700374238962400,2.14296240234375,0.027238720059394834,-0.1719580470414832,-0.37255763014499094
1669700374248892400,2.152892333984375,0.01990647747516632,-0.11880158986076712,-0.4893693248301744
1669700374258823400,2.162823486328125,-0.02603285140097141,0.004989780244464054,-0.3232870744869113
1669700374268753400,2.17275341796875,-0.021100071173906325,0.08395745456526055,-0.22093340087896213
1669700374278684400,2.182684326171875,0.051474166649579996,0.09161586036393418,-0.018876417474797926
1669700374288614400,2.192614501953125,0.021094225955009458,-0.008811082965135573,0.2559327632687986
1669700374298545400,2.20254541015625,0.021242109993100167,-0.10872672490435652,0.4532493061136454
1669700374308475100,2.21247509765625,0.04069675204753875,-0.07480021591042169,0.8543477153599262
1669700374318406400,2.222406494140625,0.0025350714355707165,-0.030580586966359985,1.5599603287577628
1669700374328336100,2.232336181640625,0.04982113874554634,0.06410044225500897,1.3816864131003617
1669700374338267400,2.242267333984375,0.04683481641113758,0.14522081936397588,1.5081436322808264
1669700374348197000,2.252197021484375,0.016463643544912338,0.2572411789862439,1.4075203809283674
1669700374358128400,2.26212841796875,0.004492635244131088,0.341894744323194,1.3725894989311693
1669700374368058400,2.272058349609375,-0.05343289950191974,0.35506321878023445,1.5542689852483569
1669700374377989400,2.2819892578125,0.04891922146975994,0.4859525751892477,1.5545377191871403
1669700374387919400,2.29191943359375,0.04906418289840221,0.6367408102888613,1.3189030630595981
1669700374397850400,2.301850341796875,-0.019023849421739576,0.6990706444084643,1.104012796536088
1669700374407780400,2.3117802734375,0.054286301460862156,0.6598196341898291,0.9374001656431704
1669700374417711400,2.32171142578125,0.024801263779401776,0.5439900458771735,0.750827135130763
1669700374427641300,2.331641357421875,-0.010222703328728676,0.33716647369228303,0.829707122034952
1669700374437572400,2.341572265625,0.04348959763646126,0.1323476745916996,0.830770075091347
1669700374447502300,2.35150244140625,0.012210077753663062,-0.0655455904288683,1.1227770451735704
1669700374457433300,2.361433349609375,0.05334931287169456,-0.19966785521134733,1.2145215551521629
1669700374467363300,2.37136328125,-0.0017161562681198119,-0.2618243055254221,1.137112152257189
1669700374477294000,2.381294189453125,0.018485504761338232,-0.10138511170358397,1.1983435236155986
1669700374487224300,2.391224365234375,0.03299392258524895,0.14605073084947653,0.5559620770912617
1669700374497155300,2.4011552734375,-0.019374562555551526,0.2865725604759529,-0.04504388244033325
1669700374507085300,2.411085205078125,-0.001270166066288948,0.30121150934435426,-0.7126335250105709
1669700374517016300,2.421016357421875,0.021182488760352135,0.3684501948261633,-1.002943628047034
1669700374526946300,2.4309462890625,0.03809679868221283,0.3753142353767529,-1.3683560991451142
1669700374536877300,2.440877197265625,-0.012950666987895964,0.2807250034915283,-2.043607330418378
1669700374546807300,2.450807373046875,-0.005919453176856041,0.1485866608015727,-2.206601259357482
1669700374556738300,2.46073828125,-0.019997662889957427,0.05681350925038568,-2.492797351203859
1669700374566668300,2.470668212890625,0.003344634252786636,-0.06813611837872303,-2.719885566651821
1669700374576599300,2.480599365234375,-0.016267244189977645,-0.1273595748476684,-2.6847350505545733
1669700374586530300,2.4905302734375,0.045375265252590176,-0.0020732900095637888,-2.6646263285055753
1669700374596460300,2.500460205078125,-0.01104161849617958,0.15466878459369762,-2.8627722348466516
1669700374606391600,2.5103916015625,-0.013278583768010138,0.2846622698752209,-2.965876050968468
1669700374616321300,2.5203212890625,-0.007904489514231682,0.27906503439005464,-3.0951278693035245
1669700374626252300,2.530252197265625,-0.0028209026396274566,0.1807285788005218,-3.10709975438714
1669700374636182300,2.540182373046875,-0.001925415104627609,-0.03782154367109761,-3.1604224715128537
1669700374646113300,2.55011328125,-0.013304302731156348,-0.1931544912619516,-3.141330233030021
1669700374656043300,2.560043212890625,-0.01899462332725525,-0.18864671324761584,-2.8821196171343324
1669700374665974300,2.569974365234375,0.016460136413574217,-0.19206519818790255,-2.519877373570204
1669700374675904300,2.579904296875,-0.0076256725728511806,-0.11955809818333946,-2.1669833885878322
1669700374685835300,2.589835205078125,0.006885083338618278,0.08155072221709415,-2.2059863423295316
1669700374695765200,2.59976513671875,0.013019640570878982,0.34246089030597354,-1.9957228588238358
1669700374705696300,2.6096962890625,-0.01316869365274906,0.47847496931757777,-1.5413281090021131
1669700374715626200,2.619626220703125,0.00852758984863758,0.6003949469272047,-0.9154346367463468
1669700374725557200,2.62955712890625,0.01376256789267063,0.47015104881487785,-0.005330994897568598
1669700374735487200,2.6394873046875,0.019748072043061254,0.34941140356361866,-0.01209004527030047
1669700374745418200,2.649418212890625,0.012866495835781097,0.21055793640762566,-0.03751164203828666
1669700374755348200,2.65934814453125,0.0219943896651268,-0.01686358438162133,-0.04381942324587144
1669700374765279200,2.669279296875,0.01810264292359352,0.01842043103533797,-0.053368410297809164
1669700374775209200,2.679209228515625,0.010470540609955788,0.027581067223660646,-0.058495635384740306
1669700374785140000,2.689139892578125,0.015855740779638288,0.030902658527577294,-0.05497276762137189
1669700374795070200,2.6990703125,0.01675415092408657,0.022322836168203502,-0.047139818106545134
1669700374805001000,2.7090009765625,0.006876315510272979,0.006310297391656785,-0.036860208375251384
1669700374814931200,2.71893115234375,0.007324059277772903,0.00968921750653535,-0.02089257275293348
1669700374824862000,2.728862060546875,0.021091887867450712,0.006444216836476698,-0.018793620862439273
1669700374834792200,2.738792236328125,0.007472527837753295,0.006398724593780935,-0.028671543041220864
1669700374844723000,2.748722900390625,-0.0016571195572614669,-0.002988313362095505,-0.03175196655000327
1669700374854653200,2.758653076171875,0.022436288213729855,-0.01653479995182715,-0.041754179545445365
1669700374864584000,2.768583984375,0.010466448956727981,-0.009570550429774448,-0.0547298257109709
1669700374874514200,2.77851416015625,0.008971241962909698,0.006653521338757127,-0.050668005932425146
1669700374884445200,2.788445068359375,0.012563713496923446,0.017345577478595078,-0.045322731347754594
1669700374894375200,2.798375244140625,0.018549802169203756,0.03259062074767426,-0.04930721614034846
1669700374904306200,2.80830615234375,0.019447627791762352,0.026149015993392092,-0.04947679142043925
1669700374914236200,2.818236083984375,0.013761983370780944,0.00032668380425311623,-0.04455493901276495
1669700374924167200,2.828167236328125,0.018551555734872816,0.03723779809954576,-0.038550405934918666
1669700374934097200,2.83809716796875,0.03097030780315399,0.006226564630959183,-0.04543390923780389
1669700374944028200,2.848028076171875,0.011965163081884384,0.006504769650986418,-0.04713548899129964
1669700374953958100,2.857958251953125,0.010616086560487747,-0.04406319627333432,-0.0389668732147431
1669700374963889200,2.86788916015625,0.033658523973822595,-0.5828116517025977,-0.07899575877096504
1669700374973819100,2.877819091796875,0.018844985723495484,-1.8590066959574818,-0.10892143462570383
1669700374983750100,2.887750244140625,0.02258767938315868,-1.6479707667745649,-0.007179506557795684
1669700374993680100,2.89768017578125,0.05176759663820266,-1.1352232697706668,-0.2435207332022488
1669700375003611100,2.907611083984375,0.007328735452890396,-0.6251891964439302,-0.4091329183483496
1669700375013540900,2.917540771484375,0.013314239603281021,-0.4106474510971457,-0.3840431199511513
1669700375023472000,2.92747216796875,-0.0071866966336965555,-0.3905674436859786,-0.40723227235879744
1669700375033401900,2.93740185546875,0.04369125768840313,-0.561508020780608,-0.419183954904601
1669700375043333000,2.9473330078125,0.015710779350996018,-0.843300324710086,-0.5149046750377864
1669700375053263000,2.95726318359375,-0.02379997778236866,-1.1864509873785078,-0.5410525676531717
1669700375063194000,2.967194091796875,0.07331658062338829,-1.1658219677824526,-0.4263383201712742
1669700375073124000,2.9771240234375,0.008521160107851028,-1.2941656582966445,-0.4499379165433347
1669700375083055000,2.98705517578125,0.023337036445736883,-1.0922753047302365,-0.25122663140445944
1669700375092985000,2.996985107421875,0.004329553636908531,-1.0472820975977928,-0.15814818767467512
1669700375102916000,3.006916015625,0.03709901981651783,-1.0787984219111502,-0.1116881045937538
1669700375112846000,3.01684619140625,0.000730067840218544,-1.0024600823137908,0.011216975063085555
1669700375122777000,3.026777099609375,0.027507600128650663,-0.991011125125736,-0.005220855903846677
1669700375132707000,3.03670703125,0.043967152020335194,-1.0069102666556835,-0.07214458683510311
1669700375142638000,3.04663818359375,-0.004968436062335968,-0.8988847762227058,-0.08216099960254505
1669700375152568000,3.056568115234375,0.02120879224538803,-0.6276975260030477,0.01657507716328837
1669700375162499000,3.0664990234375,0.02659457693696022,-0.4340191204648465,0.20911091593708842
1669700375172429000,3.076428955078125,0.03542085747122765,-0.3475472171269357,0.2937447171276435
1669700375182360000,3.086360107421875,0.0020388123512268064,-0.44169411207213993,0.28088439530432224
1669700375192291000,3.096291015625,0.057257426226139066,-0.5714317046301439,0.259080121383816
1669700375202221000,3.106220947265625,0.0045960956186056135,-0.5283301564631984,0.2056881384141743
1669700375212152000,3.116152099609375,0.010424947902560234,-0.5811569432981312,0.13105722378920762
1669700375222082000,3.12608203125,0.0150666362285614,-0.7026430960677563,0.018714826855051797
1669700375232013000,3.136012939453125,0.06101648649871349,-0.5676563508098945,-0.05816073174141347
1669700375241943000,3.145943115234375,0.021067922469973563,-0.4233484541729092,-0.08393148900694214
1669700375251874000,3.1558740234375,0.037086160334944725,-0.18375932479854673,-0.13860290819471702
1669700375261804000,3.165803955078125,0.02317337031662464,0.08358679462196304,-0.14487561352234332
1669700375271735300,3.1757353515625,0.03366203110516071,0.08970042779720387,-0.14792028758102096
1669700375281665000,3.1856650390625,0.017971710020303726,-0.00423314405772835,-0.12477649955190717
1669700375291596300,3.19559619140625,-0.02437865445315838,0.10161582432007417,-0.10182899214671924
1669700375301526000,3.205526123046875,0.052386605319380754,0.21508043706705793,0.047084745184751225
1669700375311457300,3.215457275390625,-0.015683891344070434,0.20613650323618202,0.06551592594296671
1669700375321387000,3.225386962890625,0.010359481450915337,-0.042619080145936454,0.08275730326157063
1669700375331318000,3.235318115234375,0.03549918340444565,-0.0831496818463318,-0.016220107979467137
1669700375341248000,3.245248046875,0.023841478836536405,-0.006720165967335924,-0.18152228646147994
1669700375351179000,3.255178955078125,-0.012056933018565178,0.1689768758062273,-0.29655763739021496
1669700375361109000,3.26510888671875,-0.00038169279396533964,0.36928737630266695,-0.25548978700796143
1669700375371040000,3.2750400390625,0.019522446593642235,0.6420334368042647,-0.0896128225789871
1669700375380970000,3.284969970703125,0.0018733926564455032,0.9066656393572687,0.1146651476431638
1669700375390901000,3.29490087890625,0.0021808511704206465,1.0449056507900356,0.26089703461267055
1669700375400831000,3.3048310546875,0.0005459434449672699,1.250251697768271,0.1899708745234646
1669700375410762000,3.314761962890625,0.017008417946100234,1.453583043923229,-0.013296804411290213
1669700375420692000,3.32469189453125,0.01986205381155014,1.6081686254791914,-0.17090134106278418
1669700375430623000,3.334623046875,-0.001980360162258148,1.7137620664596556,-0.2237965900240466
1669700375440553200,3.34455322265625,0.013434651112556456,1.7779798332177101,-0.21930579967712982
1669700375450484000,3.35448388671875,-0.02935468930006027,1.6644174591846763,-0.12220349812558852
1669700375460414200,3.364414306640625,0.005955109012126922,1.5527220480673014,0.04214724768337328
1669700375470345000,3.374344970703125,-0.012591770547628401,1.3689511424288152,0.20087145884744823
1669700375480275200,3.384275146484375,0.007608721438050269,1.330862527053058,0.2828213912488893
1669700375490206000,3.3942060546875,0.023476737177371976,1.1493468529954551,0.2322427851995453
1669700375500136200,3.40413623046875,0.019589082089066505,1.131769768315926,0.06231549506699666
1669700375510067000,3.41406689453125,-0.005694996771216392,1.1541177206590771,0.12095556215741671
1669700375519997200,3.4239970703125,0.013021394136548042,1.0818843321625142,-0.07343346216843928
1669700375529928000,3.433927978515625,-0.002381342178583145,1.012981695523858,-0.09754484855411574
1669700375539858200,3.443858154296875,0.032494740891456604,0.8299877656072377,-0.015858001235383563
1669700375549789200,3.4537890625,0.001225157880783081,0.639244317542389,-0.10840384049238637
1669700375559719200,3.46371923828125,-0.0053548050314188,0.618763328114897,-0.1374175982671324
1669700375569650200,3.473650146484375,0.008264554998278618,0.27997071452550587,-0.07789577990612015
1669700375579580200,3.483580078125,0.020986089405417442,0.021635648488486186,-0.029958737874124196
1669700375589511200,3.49351123046875,0.012606383594870567,0.014512198949884623,-0.06198292494465131
1669700375599441200,3.503441162109375,0.01485270121693611,0.005812366940034553,-0.06735085888570175
1669700375609372200,3.5133720703125,0.010811901393532752,-0.0024325152433943,-0.06907845442986581
1669700375619302100,3.52330224609375,0.009915829336643218,-0.00034375367006286975,-0.06471654202647041
1669700375629233200,3.533233154296875,0.009168225839734078,-0.0014023045459762215,-0.04003019159731921
1669700375639163100,3.5431630859375,0.024880758756399154,-0.0006780910578090697,-0.02639025913705118
1669700375649094100,3.55309423828125,0.015604396367073059,-0.004952270378824323,-0.020162123603513462
1669700375659025200,3.563025146484375,0.00961947673857212,-0.0018421481348108498,-0.026814576363191008
1669700375668955100,3.572955078125,0.021890344768762587,-0.0019965258457697926,-0.03206358293257654
1669700375678886100,3.58288623046875,0.0175502697378397,-0.003228935451246798,-0.038582737301941956
1669700375688816000,3.592816162109375,0.01635375342965126,-0.011290542622795328,-0.049762453661137254
1669700375698747100,3.6027470703125,0.019345920982956885,-0.008088038520747794,-0.055712215211289
1669700375708677000,3.612677001953125,0.02308569203317165,-0.003830974731314927,-0.06706844804801512
1669700375718608100,3.622608154296875,0.01964285810291767,0.0037638460455462334,-0.057813315676385535
1669700375728538000,3.6325380859375,0.012608721682429313,0.012082487584929913,-0.05319825962898321
1669700375738469000,3.64246923828125,0.016799743631482122,0.011921177809685468,-0.030557493785140104
1669700375748399000,3.652399169921875,0.006326280412077903,0.007947643669368698,-0.04398206189509946
1669700375758330000,3.662330078125,0.003184475255012512,0.17719032167177645,-0.014755661450093611
1669700375768260000,3.672260009765625,0.023235329636931416,0.24203590147197246,-0.03028472299205605
1669700375778191600,3.682191650390625,0.02173895359933376,-0.10398782328157685,-0.052541165693430224
1669700375788121300,3.692121337890625,0.004980711022019386,-0.16189133799206465,-0.0598127093326766
1669700375798052600,3.702052490234375,0.011866963404417038,-0.10579444344528019,-0.09859502432732842
1669700375807982600,3.711982666015625,0.019497896674275397,0.10255815580463967,-0.045740290039544926
1669700375817913600,3.72191357421875,0.0067798693984746925,0.08545204050457104,-0.07700274918968789
1669700375827843600,3.731843505859375,0.02189326737821102,0.050698423903575165,-0.08102386706508695
1669700375837774600,3.741774658203125,0.02324175937771797,0.10493209099490194,-0.11521721030166372
1669700375847704600,3.75170458984375,0.020254267999529837,0.13622552067204377,-0.10095279383407905
1669700375857635600,3.761635498046875,-0.003839139771461487,0.07315010148268193,-0.10126959556513465
1669700375867565600,3.771565673828125,0.0437491253554821,0.038868449774989856,-0.0799555071812123
1669700375877496600,3.78149658203125,0.005890811604261398,0.1556092985805124,-0.0524188681877451
1669700375887426600,3.791426513671875,-0.006226327168941497,0.10542762856003828,-0.04634789597729686
1669700375897357600,3.801357666015625,0.02969195843040943,-0.10951857853494584,-0.12601199616361408
1669700375907287600,3.81128759765625,-0.01684475181698799,-0.5608677135830745,-0.44088177277594803
1669700375917218600,3.821218505859375,0.042864743736386296,0.013656586767546832,-0.3554127994028851
1669700375927148500,3.8311484375,-0.0240203425347805,0.42810529331117864,-0.10887715709256007
1669700375937079600,3.84107958984375,0.010699673190712928,0.3036522535599768,0.07213225707649253
1669700375947009500,3.851009521484375,0.043025487256050106,0.15969152639284728,0.02148181191693293
1669700375956940500,3.8609404296875,-0.010241408029198646,0.02617064786988776,-0.2626931973144412
1669700375966870500,3.87087060546875,0.05918868654966354,0.11100353812938556,-0.3891576134206727
1669700375976801500,3.880801513671875,-0.0316366627573967,-0.006153905820124783,-0.6915661139972508
1669700375986731500,3.8907314453125,0.04662672661840916,-0.06985252580859232,-0.8346119182765483
1669700375996662500,3.90066259765625,-0.005147884282469749,-0.033046008965512734,-0.9135284377988427
1669700376006592500,3.910592529296875,-0.000054945057630538935,-0.048812354428647085,-0.8056330765515566
1669700376016523500,3.9205234375,0.009072364249825477,-0.1756196382889524,-0.8877589135091751
1669700376026453500,3.93045361328125,0.0241904384046793,-0.0024687327676685524,-0.9616326165586709
1669700376036384500,3.940384521484375,-0.009916413858532905,-0.0720952175683109,-1.0767392243590206
1669700376046314500,3.950314453125,-0.0019897125124931333,-0.2323814812841825,-1.0486338044676928
1669700376056244700,3.96024462890625,0.0140209265679121,-0.257217999040056,-0.8538428345777094
1669700376066175500,3.970175537109375,-0.028327099817991256,-0.23564556111404672,-0.838931827302277
1669700376076105500,3.98010546875,0.03990940106213092,-0.1337314297008328,-0.8955597234532237
1669700376086036700,3.99003662109375,0.014466916769742965,0.02810089441325981,-0.9999251570086926
1669700376095966500,3.999966552734375,-0.01620996104478836,0.22313102052109315,-0.8827163162320851
1669700376105897700,4.009897705078125,0.025989596781134605,0.24835542334970084,-0.7708717059023678
1669700376115827500,4.019827392578125,-0.00019172317981719968,0.15770575940310955,-1.0027500782363117
1669700376125758700,4.0297587890625,-0.03685001349151134,0.23183438706174492,-0.966932403467223
1669700376135688400,4.0396884765625,-0.03670329849720001,0.3960996145782992,-0.9942522990040481
1669700376145619700,4.04961962890625,0.068192077216506,0.3628297611285001,-1.1772902141928672
1669700376155549400,4.059549560546875,-0.05959609830677509,0.16054533021058887,-1.2013862523123622
1669700376165480700,4.069480712890625,0.09198270264863967,-0.028496282372437415,-1.3354000243522226
1669700376175410400,4.079410400390625,-0.047771220478415484,0.0875429940349888,-1.2583245295867322
1669700376185341700,4.089341796875,0.06310849034190177,0.1758694848641753,-1.1435722881820052
1669700376195271400,4.099271484375,-0.017540332865715026,0.2084972044855356,-0.8317869970489293
1669700376205202700,4.10920263671875,0.021965748092532156,0.3277408755579963,-0.6973939433678984
1669700376215132400,4.11913232421875,-0.00810673408806324,0.10963029528111219,-0.5021949041336774
1669700376225063700,4.129063720703125,0.024364041405916213,0.01209243359020911,-0.6215627495750784
1669700376234993400,4.138993408203125,-0.016788637715578078,0.011409876419836654,-0.6031340895675122
1669700376244924700,4.148924560546875,0.01103811136484146,0.07286367662358097,-0.5318644315365701
1669700376254854700,4.158854736328125,0.0195674547791481,0.053303619699599215,-0.40029176903851327
1669700376264785400,4.168785400390625,0.03872165258228778,-0.1418443834671285,-0.5081743073368444
1669700376274715600,4.178715576171875,-0.02083352919220924,-0.013717294845683499,-0.4835357598384842
1669700376284646400,4.188646484375,0.045907764694094653,0.14893491711681708,-0.3626067660275846
1669700376294576600,4.19857666015625,-0.02921089691519737,0.12570209909738042,-0.6175512489113957
1669700376304507400,4.20850732421875,0.002215337961912155,0.13956795383458956,-1.127349906047061
1669700376314437600,4.218437744140625,0.027350363740324974,-0.03336727680913172,-0.9847300720948725
1669700376324368400,4.228368408203125,-0.01604044969677925,-0.08936089364453219,-1.0224437166783957
1669700376334299600,4.238299560546875,0.03198679136931896,-0.167395707562007,-1.0639601876109839
1669700376344229400,4.2482294921875,-0.12155775670111178,-0.11635904641370289,-0.990604590151459
1669700376354160600,4.25816064453125,0.057548518127202984,-0.1243375418790616,-0.9254591871544718
1669700376364090600,4.268090576171875,0.0003787701845169067,-0.19307050277292728,-0.6424671520464121
1669700376374021600,4.278021728515625,0.04168459404110908,-0.35139815693404525,-0.5758371730474755
1669700376383951600,4.28795166015625,0.13745909018814562,-0.3825745087033137,-0.4002662692710757
1669700376393882600,4.297882568359375,-0.22722645487487314,-0.1478371576085221,-0.6633904053486883
1669700376403812600,4.3078125,0.05497603729069232,-0.05233578844759613,-0.917238909689337
1669700376413743600,4.31774365234375,0.06529577125310898,0.060615248754061754,-0.8036127497050911
1669700376423673600,4.327673583984375,-0.014767945542931557,0.13969098655921405,-0.7410522486347705
1669700376433604400,4.337604248046875,-0.010586860466003418,0.14057277436242438,-0.5585242557294666
1669700376443534600,4.34753466796875,0.03834112883210182,0.13944308534590527,-0.07080606367376167
1669700376453465300,4.35746533203125,-0.00626022943854332,0.08178854042780585,-0.17352781710885465
1669700376463395600,4.3673955078125,0.05523614953160286,0.08897847933135926,-0.31008550147786734
1669700376473326600,4.37732666015625,0.019470424145460127,0.22724576236354185,0.020934914057317653
1669700376483256600,4.387256591796875,0.008988193097710609,0.3012520970830694,0.11601863547819666
1669700376493187600,4.3971875,0.03232698310911655,0.21111279381141065,0.12781514572859742
1669700376503118600,4.40711865234375,-0.0005991349369287491,0.20366244127284736,0.29604090177342296
1669700376513048600,4.417048583984375,0.023340543577075004,0.17743841468133031,0.3525012593377381
1669700376522979600,4.4269794921875,-0.04984159701168537,0.05376214058944024,0.3544785142274573
1669700376532909600,4.43690966796875,0.26980770549476146,-0.19686923746876417,0.030798067925230134
1669700376542840600,4.446840576171875,-0.2519944009065628,-0.19817684946861117,-0.05714960933695547
1669700376552771600,4.456771484375,0.07272095281779765,-0.07401753196697682,-0.26871685978444293
1669700376562701600,4.46670166015625,0.01690437304973602,-0.07174340388937853,-0.33520332039315254
1669700376572632600,4.476632568359375,0.0671896221756935,-0.12851997866285964,-0.398933120971173
1669700376582562600,4.4865625,-0.0270791455835104,-0.15903682534378022,-0.3696839744048193
1669700376592493600,4.49649365234375,0.06121697750687599,-0.0061805152658373115,-0.5039829200616106
1669700376602423600,4.506423583984375,-0.0369563964754343,0.052473461618926374,-0.43893294026311486
1669700376612354600,4.5163544921875,-0.07064005489051342,-0.01924320952715352,-0.21237452084291725
1669700376622284500,4.526284423828125,0.055792614370584484,-0.0990446586578153,0.10273939412306063
1669700376632215600,4.536215576171875,0.00865092396736145,-0.062176990778604516,0.6335315659187734
1669700376642145500,4.5461455078125,-0.016347908210754394,0.03110725945527665,1.031637296155095
1669700376652076500,4.55607666015625,0.05771919851899147,0.10055771183557807,1.0049250111225991
1669700376662006500,4.566006591796875,0.021055062988400458,0.23824622686542568,0.8765682419311255
1669700376671937500,4.5759375,-0.02219955684840679,0.399730554959178,0.6867815100692212
1669700376681867500,4.585867431640625,0.00801087249815464,0.5035122703425586,0.526946848878637
1669700376691798800,4.595798828125,0.03479483452737331,0.4999102272626012,0.40371852861680085
1669700376701728500,4.605728515625,0.05708090061545372,0.38544516876880075,0.7250598027981817
1669700376711659800,4.61565966796875,-0.0554477464556694,0.30114233483197167,0.8311271449007094
1669700376721589500,4.625589599609375,0.043012627774477,0.1740737240212038,1.0477322525180877
1669700376731520800,4.635520751953125,0.020872692158818245,0.041937856416124845,1.2148151312712578
1669700376741450500,4.645450439453125,-0.02821311804950237,0.03432075987537391,1.5435760340593754
1669700376751381800,4.6553818359375,0.05618015238344669,0.06846580699081532,1.2904368470318615
1669700376761311500,4.6653115234375,0.01907294926047325,0.19269624436674637,1.1452504505272953
1669700376771242500,4.675242431640625,0.002908580923080444,0.21216135301627218,0.883004923915118
1669700376781172000,4.685171875,-0.00023497779965400695,0.2101604249900207,0.6923670551165938
1669700376791103000,4.69510302734375,0.027594693890213965,0.2391536240339279,0.8721369084201752
1669700376801033000,4.705032958984375,0.021759411865472793,0.3173279468867928,1.1875429473336785
1669700376810964000,4.7149638671875,0.01995557731389999,0.29163030052324757,1.4506529818207026
1669700376820894000,4.72489404296875,-0.016255553752183915,0.22884992789085953,1.8190680688008665
1669700376830825000,4.734824951171875,0.06155775376856327,0.03201374330832623,1.8613735712192951
1669700376840756000,4.744755859375,0.03103694329857826,-0.004954855061555281,2.092047682330012
1669700376850686000,4.75468603515625,0.028645664247870444,0.11968500336548313,1.6250354429975151
1669700376860617000,4.764616943359375,0.03133680302798748,0.36425625026766206,1.3365676068268715
1669700376870547000,4.774546875,-0.01849310354590416,0.47537389802969987,1.0455192526437342
1669700376880478000,4.78447802734375,-0.002339256602525711,0.29198853937638924,0.7050726613022387
1669700376890408000,4.794407958984375,0.04524900852441788,0.1949872231144458,0.7101716649416834
1669700376900339000,4.8043388671875,0.01771393586695194,0.2104892550855875,0.9950083050031214
1669700376910269000,4.81426904296875,0.009483867660164833,0.16167574074631555,1.3458952610120176
1669700376920200000,4.824199951171875,0.02250117014348507,0.08543219415978529,1.6136073094017802
1669700376930130000,4.8341298828125,0.04584638989567756,0.0807409402041696,1.528799759079516
1669700376940061000,4.84406103515625,0.00963993500471115,0.09142570808669552,1.0771952244982124
1669700376949991000,4.853990966796875,0.01113748008608818,0.16351773361749947,1.2046671006139367
1669700376959922000,4.863921875,0.02670037539899349,0.20216495099039747,1.0621139021571726
1669700376969852000,4.873851806640625,0.04750000232160091,-0.060156216407567256,0.7235976943563669
1669700376979783200,4.883783203125,-0.01953822868466377,-0.07106278294776566,0.25662399693597104
1669700376989713000,4.893712890625,0.012484803041815757,-0.1440145123141352,-0.08343486459641716
1669700376999644200,4.90364404296875,0.026850013002753255,-0.15752028330098836,-0.017377509270107838
1669700377009574000,4.913573974609375,0.019366963770985603,-0.18139047677535564,-0.0581040422512684
1669700377019505000,4.9235048828125,0.011136311042308807,-0.1487304166538175,-0.064084774328419
1669700377029435000,4.933434814453125,0.036873978888988496,-0.013172639175504446,-0.048560672089364376
1669700377039366000,4.943365966796875,0.038220717322826385,-0.01007864608238451,-0.044013845272851175
1669700377049296000,4.9532958984375,-0.0018809914410114288,-0.00985460066869855,-0.04753420141872484
1669700377059227000,4.963226806640625,0.002162146469950676,-0.0032632487128023057,-0.017232930292311356
1669700377069156900,4.973156982421875,0.01398351716697216,0.014090000615594908,-0.02509855709238909
1669700377079087900,4.983087890625,0.01443184545636177,0.015796083014272152,-0.0311791990301921
1669700377089019100,4.99301904296875,0.0018622867405414581,0.010225708136567846,-0.03780992173196282
1669700377098948900,5.002948974609375,0.020566402688622473,0.0059835587884765114,-0.049957135983021
1669700377108880100,5.012880126953125,0.01921674164533615,0.007291545247659087,-0.05601417556623928
1669700377118809900,5.022809814453125,0.0073942019045352934,0.0059475102275609966,-0.05431715325685218
1669700377128741000,5.0327412109375,0.01876490622460842,0.007277498455997556,-0.050344075774261726
1669700377138670800,5.0426708984375,0.01921323451399803,0.01136706932457164,-0.04193295647872146
1669700377148602000,5.05260205078125,0.008139467313885687,0.010969165181322023,-0.030987484983529427
1669700377158531800,5.06253173828125,-0.0012877017229795456,0.018603167191101236,-0.027111961007723583
1669700377168463000,5.072463134765625,0.014423077628016472,0.013372892721649259,-0.023258900025475305
1669700377178392800,5.082392822265625,0.009036123892664909,0.01053196107414551,-0.03934478031615726
1669700377188324000,5.092323974609375,0.00843698895573616,-0.0033423418310005214,-0.03820738291721791
1669700377198253800,5.10225390625,0.021606267130374907,-0.009238432398578151,-0.032157750322320496
1669700377208184800,5.112184814453125,0.028190321695804595,-0.010000466279638931,-0.038279831665498205
1669700377218114800,5.12211474609375,0.011132219389081,-0.006906381854973733,-0.03149582951460034
1669700377228045800,5.1320458984375,0.016519173124432563,0.054570333433477204,-0.027114057066687382
1669700377237975800,5.141975830078125,0.018465046495199203,0.02159504248346202,-0.028694538041029588
1669700377247906800,5.15190673828125,0.012777648508548735,-0.021693689685501158,-0.02697483582566492
1669700377257837000,5.161837158203125,0.0006558335602283477,0.1819175693893805,-0.03354928687911015
1669700377267767800,5.171767822265625,0.03402618824243545,0.15025794588150457,-0.038211721165617926
1669700377277698000,5.181697998046875,0.012776479464769362,0.8466313688289374,-0.06857561490768567
1669700377287628800,5.19162890625,0.01696457880437374,0.5269932818362489,0.03137796615543775
1669700377297559000,5.20155908203125,0.01083119061589241,0.21711309367213397,-0.05552127748276107
1669700377307489800,5.21148974609375,0.058120180535316465,0.613643793144077,-0.3447982472123578
1669700377317420000,5.221419921875,-0.015801380243897437,0.8671973331261426,-0.3474302031511441
1669700377327350800,5.231350830078125,-0.011014730489253997,0.6653375208284705,-0.35860969574805346
1669700377337282000,5.241281982421875,0.03372749755680561,0.45831970471311356,-0.1744881865736097
1669700377347211800,5.251211669921875,0.013229483929276465,0.5942568825636059,-0.23215802952554077
1669700377357143000,5.26114306640625,-0.01205459493100643,0.6020650720965117,-0.139298818037007
1669700377367073000,5.271072998046875,-0.01714110441505909,0.8652097395054995,-0.2135383587242104
1669700377377004000,5.281004150390625,0.062467269828915595,0.8881414100207388,-0.1487293754742015
1669700377386934000,5.29093408203125,-0.048557402420043944,0.7817882367141544,0.0537992622960126
1669700377396864800,5.30086474609375,0.037792847299575806,0.9278737009502946,0.0986893515472766
1669700377406795000,5.310794921875,-0.012477788779139519,0.9991937739942223,0.10322964359172619
1669700377416725800,5.320725830078125,0.042594110101461406,0.9927662251647561,0.22696610517194493
1669700377426656000,5.330656005859375,-0.006176642808318138,1.0792500381361692,0.17433502357220276
1669700377436586800,5.340586669921875,0.030945757883787152,1.0851925068624317,0.20611209944728762
1669700377446517000,5.35051708984375,-0.018279753056168555,1.2703498984232544,0.13150535114919765
1669700377456447700,5.36044775390625,-0.01587619904577732,1.0218467006333172,0.0812263491009362
1669700377466378000,5.3703779296875,0.04234335021078586,0.9333146498952061,0.005674565333718783
1669700377476309000,5.38030908203125,-0.0020920038431882855,0.878164352016151,-0.0979274181309156
1669700377486239000,5.390239013671875,0.002260346147418022,0.8995060499262064,-0.06857404857168439
1669700377496170000,5.400169921875,0.04132978925406933,0.6931006300881505,-0.11498436052701436
1669700377506100000,5.410099853515625,-0.0048965398699045174,0.5932951248593628,-0.14796344173615797
1669700377516031000,5.420031005859375,0.006795066967606544,0.6742104169834405,-0.1835016419767402
1669700377525961000,5.4299609375,0.06651625295877456,0.8225015015050768,-0.15049926209039985
1669700377535892000,5.43989208984375,-0.07323007138371466,0.7962179632786661,-0.18328047350673005
1669700377545822000,5.449822021484375,0.11652853036224842,0.8634636264905333,-0.31754053019154815
1669700377555753000,5.4597529296875,-0.10268471392691135,0.9137305362422019,-0.4319972957810387
1669700377565684000,5.46968408203125,0.043672552987933155,0.799245567471534,-0.3985592826901003
1669700377575614000,5.479614013671875,-0.02560731946527958,0.4645712759211659,-0.1086035825818777
1669700377585545000,5.489544921875,0.07151800676882267,0.6255313609451055,0.09553161816871725
1669700377595475000,5.499474853515625,0.00418926838338375,0.4446764523511752,0.3501389141205698
1669700377605406000,5.509406005859375,-0.010621347257494926,0.22297053272975606,0.4142633765719831
1669700377615336000,5.5193359375,0.05433130964636802,0.2586411454446614,0.25277596147200093
1669700377625267000,5.529266845703125,0.015132687202095985,0.2408795162447728,-0.10796801549154333
1669700377635197000,5.539197021484375,-0.005369418078660965,0.3782273463444784,-0.3599842720368877
1669700377645128000,5.5491279296875,0.03144260149002075,0.44649676311351355,-0.588311491227895
1669700377655058000,5.559057861328125,0.035335517275333406,0.2809800559648312,-0.6986135482907295
1669700377664989000,5.568989013671875,-0.00939677389860153,0.22110990822333842,-0.7207792759347706
1669700377674919000,5.5789189453125,0.04971592480540275,0.21966537197083233,-0.6192856714885682
1669700377684850000,5.588849853515625,-0.01177577798962593,0.347838783952035,-0.6019902532946318
1669700377694780000,5.59877978515625,-0.02224398051202297,0.1313000195691362,-0.5276133864959701
1669700377704711000,5.6087109375,-0.00443067592382431,-0.09822826424101368,-0.23676046355338765
1669700377714641000,5.618640869140625,0.0010994856745004653,-0.23850736201964318,-0.04624747694327962
1669700377724572000,5.628572021484375,-0.006240940216183662,-0.23116529216114431,0.03120751865908969
1669700377734502000,5.638501953125,0.037597032466530796,-0.1088800066367723,0.33585820410531014
1669700377744433000,5.648432861328125,0.013949030375480651,-0.39239973714705556,0.36844767407551404
1669700377754363100,5.658363037109375,0.09879238266348839,-0.5870489970114082,0.37334936504457145
1669700377764294000,5.6682939453125,-0.008948445609211922,-0.7117668251786381,0.3577321457285434
1669700377774224100,5.67822412109375,0.02382394317984581,-0.6256547681290656,0.22500514382990075
1669700377784155400,5.6881552734375,-0.015232055923342704,-0.5242367131371051,0.0564463929710444
1669700377794086100,5.698086181640625,-0.03139934687018394,-0.6101677875965833,-0.039065237288991916
1669700377804016400,5.708016357421875,-0.012096095985174178,-0.6279627528104931,-0.1066007457263302
1669700377813947400,5.717947509765625,0.034139000967144964,-0.47386418758649373,-0.2674803585257381
1669700377823877400,5.72787744140625,0.1080628998339176,-0.574328047126159,-0.2870530740018934
1669700377833808400,5.737808349609375,-0.09186229113936424,-0.7022140570007264,-0.07095776993702166
1669700377843738400,5.74773828125,0.11852642618119716,-0.7297684919457882,-0.06979735698867588
1669700377853669400,5.75766943359375,0.0643581981420517,-0.9117238725949078,0.11198482251800596
1669700377863599400,5.767599365234375,-0.03186053464114666,-1.1896580397915095,0.34922421042844654
1669700377873530400,5.7775302734375,0.007337503281235695,-1.4135614146582782,0.36272823698278517
1669700377883460400,5.78746044921875,-0.014665654212236404,-1.0969387664966284,0.10446947845183312
1669700377893391400,5.797391357421875,0.07676175264120101,-1.1382448826141656,-0.07880299441153184
1669700377903321300,5.8073212890625,0.012561959931254385,-1.071139796916768,-0.29087928122654555
1669700377913252400,5.81725244140625,-0.004498480463027954,-1.1510770377889274,-0.3821120057580992
1669700377923182300,5.827182373046875,0.032011341288685796,-1.3413316063582896,-0.30606892278026787
1669700377933113300,5.83711328125,0.02706862418949604,-1.3084027118332684,-0.1906493217743002
1669700377943043300,5.847043212890625,0.029456396108865735,-1.2978123442359268,-0.0190853783421393
1669700377952974300,5.856974365234375,0.02151975789070129,-1.2137451639521866,0.1190620674278587
1669700377962904300,5.866904296875,0.040217444097995755,-1.049538425157219,0.16372257200721652
1669700377972835300,5.87683544921875,0.013570260190963744,-0.9908560806944966,0.08542337153251282
1669700377982766300,5.886766357421875,0.045880292165279384,-0.8434113108038902,0.04896037546405568
1669700377992696300,5.8966962890625,0.01893617113828659,-0.6748105017684399,0.11986346520492806
1669700378002627300,5.90662744140625,-0.004570376655459404,-0.8013445855773985,0.24953385601192712
1669700378012557300,5.916557373046875,0.01471943022608757,-0.7384719498179853,0.16108102625617757
1669700378022488300,5.92648828125,0.02622983527779579,-0.49312696033064274,0.06690833928259089
1669700378032418300,5.936418212890625,0.016197101563215254,-0.499555605138652,0.04426700261658988
1669700378042349300,5.946349365234375,0.04088087644279003,-0.5417954949749634,0.04688489349740557
1669700378052279300,5.956279296875,-0.0167354462236166,-0.06607104820823297,-0.11308703900570981
1669700378062210300,5.966210205078125,0.05388941109776497,-0.2024409001212567,0.029936836569570004
1669700378072140300,5.976140380859375,-0.0014794249027967451,-0.2003275064301677,-0.0574258552953368
1669700378082071300,5.9860712890625,0.05612871445715427,-0.25453250454943627,0.06849388687440659
1669700378092001500,5.99600146484375,-0.029918752923607825,-0.26994561612810936,0.054961542974459
1669700378101932300,6.005932373046875,0.027391280272603034,-0.06480542131974361,0.007884668856443022
1669700378111862500,6.015862548828125,0.01212473755776882,-0.045348696906073016,-0.02618110076524317
1669700378121793300,6.025793212890625,0.02948153055012226,-0.06973595479079522,-0.04686125689349137
1669700378131723500,6.0357236328125,0.002697568520903587,-0.22951144227320328,-0.10485006613410078
1669700378141654300,6.045654296875,-0.0034393267989158626,-0.20133927728859707,-0.12310304991435259
1669700378151584500,6.05558447265625,0.031126959669589994,-0.39386210131719707,-0.07592154809054918
1669700378161515300,6.065515380859375,0.030676877814531326,-0.5197336660968139,0.0927548377986066
1669700378171446300,6.0754462890625,-0.0071843585461378095,-0.3071089698851108,0.12433285657078959
1669700378181376300,6.085376220703125,0.02933247746825218,0.013875280152680351,-0.03596812065702397
1669700378191307300,6.095307373046875,0.03323006942868233,-0.0005629311123862862,-0.03383708627796732
1669700378201237500,6.105237548828125,-0.0264776725590229,0.0020481829677708448,-0.04524656997215934
1669700378211168300,6.115168212890625,-0.0014858546435832975,-0.00623215412152931,-0.04170798861642833
1669700378221098500,6.125098388671875,0.07753098344802856,-0.017074770313734187,-0.0291541138102184
1669700378231029200,6.135029296875,0.038187984097003934,-0.014882457034382969,-0.032350158488727174
1669700378240959500,6.14495947265625,0.0072176762938499445,-0.009148763087438418,-0.044995650251279586
1669700378250890200,6.15489013671875,-0.01492810454070568,-0.015531102801999076,-0.054164305349276395
1669700378260820500,6.164820556640625,-0.03348082931935787,0.10186406346010043,-0.019909948073886335
1669700378270751200,6.174751220703125,0.05720014308094978,0.0539092483093962,-0.010250207823584786
1669700378280681500,6.184681396484375,-0.04904372463226318,0.013281889969948679,-0.04393292095717043
1669700378290612200,6.1946123046875,0.04058803097605705,0.014039649534691124,-0.02579811562991235
1669700378300542500,6.20454248046875,0.004372808256745338,0.012908654477074741,-0.04636401142845861
1669700378310473500,6.214473388671875,0.029361119040846824,0.0006047609601169824,-0.03692986694482388
1669700378320403500,6.224403564453125,0.030557050827145573,0.0010265848350711167,-0.04740481201855
1669700378330334500,6.23433447265625,0.03175298261344433,-0.0040464989118278024,-0.046967635310837065
1669700378340264400,6.244264404296875,0.015294015243649482,0.0022478154594078657,-0.04240815907530486
1669700378350195500,6.254195556640625,0.00870879163444042,0.01340942533975467,-0.037791817536402955
1669700378360126200,6.264126220703125,0.01693885984122753,0.02313615271192975,-0.02850724215786904
1669700378370056400,6.274056396484375,0.012001987960934638,0.013594453917304053,-0.0263665951336734
1669700378379987200,6.2839873046875,-0.009845686709880829,0.013231712418980896,-0.02506987442059908
1669700378389917400,6.29391748046875,0.007960603615641593,0.0011759119115769862,-0.02610106464884011
1669700378399848200,6.30384814453125,0.009905892464518546,-0.00019734920300543306,-0.033456989502755455
1669700378409778400,6.3137783203125,0.014844517910480498,-0.0035105654042214152,-0.016603104531241114
1669700378419709200,6.323709228515625,0.016041618740558622,0.0009386142906732856,-0.0355725979838171
1669700378429639400,6.333639404296875,0.02412204934358597,0.0070670614425558595,-0.03252604934517294
1669700378439570400,6.3435703125,0.012151625564694403,0.01480379317444749,-0.0379099092244287
1669700378449500400,6.35350048828125,0.02262567330598831,0.015013526934990659,-0.04403135353007819
1669700378459431400,6.363431396484375,0.02696399477124214,0.02081039491179399,-0.04616687228800729
1669700378469361400,6.373361328125,0.022922610425949095,0.012409052658174186,-0.04823321196697652
1669700378479292400,6.38329248046875,-0.004462240105867385,0.00998799952371046,-0.032701367096172176
1669700378489222400,6.393222412109375,0.011247954723238944,-0.0033929943060036745,-0.03397814556633821
1669700378499153400,6.4031533203125,0.01229424890577793,-0.013435217368137091,-0.02347797700309893
1669700378509083400,6.41308349609375,-0.006409282520413399,-0.017758505661040543,-0.01867375734243542
1669700378519014400,6.423014404296875,0.01379179398715496,-0.007437876649480313,-0.01056931110958103
1669700378528944000,6.432944091796875,0.0175327340811491,-0.004642501176754013,-0.010775154146295972
1669700378538875400,6.44287548828125,0.01663432393670082,0.004559088076464831,-0.023668259427789596
1669700378548805000,6.45280517578125,0.0058615855097770685,0.006690355350961908,-0.0404813739974983
1669700378558736400,6.462736328125,0.020226795470714567,0.01747075649453327,-0.04774317712744232
1669700378568667400,6.47266748046875,0.038033670318126676,0.025095059094205497,-0.05394220073092729
1669700378578597400,6.482597412109375,0.01992693574130535,0.025928696906752882,-0.05775120565902907
1669700378588528400,6.4925283203125,-0.00012508768439292906,0.02431945334551856,-0.049371586613450195
1669700378598458400,6.502458251953125,0.01828033757805824,0.014436211104225367,-0.04144974867219571
1669700378608389400,6.512389404296875,0.01603577352166176,-0.008287652746075763,-0.036270948661654256
1669700378618319400,6.5223193359375,-0.0031172552376985546,-0.01583856131597422,-0.03701035743566462
1669700378628250400,6.53225048828125,0.017682956206798554,-0.01752570155216381,-0.021143330360320397
1669700378638180400,6.542180419921875,0.02456628597974777,-0.0230947886550799,-0.02372881909216521
1669700378648111400,6.552111328125,0.007508183673024177,-0.017168129419302566,-0.018133485586429014
1669700378658041300,6.562041259765625,0.003619359540939331,-0.0030012915746774524,-0.013327021453040652
1669700378667972400,6.571972412109375,0.014093991804122925,0.007928372713318093,-0.02820968398340046
1669700378677902300,6.58190234375,0.01469371126294136,0.015728589002322404,-0.028611335003294516
1669700378687833300,6.591833251953125,0.007809796968102455,0.02789994218079373,-0.04037228759983554
1669700378697763300,6.601763427734375,0.01948153006136417,0.02642185071855783,-0.048864541273610666
1669700378707694300,6.6116943359375,0.026213468664884564,0.029714133729599416,-0.05936725342038553
1669700378717624300,6.621624267578125,0.016636662024259567,0.012089556646533309,-0.05459357274516951
1669700378727555300,6.631555419921875,0.00945171895623207,0.01790460873399861,-0.047563998335367064
1669700378737485300,6.6414853515625,-0.06391396150588989,0.03356823360817507,-0.06189567591946106
1669700378747416300,6.651416259765625,0.1731184325903654,-0.02208151082615368,-0.0007854881072955323
1669700378757347300,6.661347412109375,-0.05463818363845348,0.013566570396535098,-0.05020980926956981
1669700378767277300,6.67127734375,0.04217676147222519,-0.009731860205018893,-0.013513075227185617
1669700378777208600,6.68120849609375,0.02736439226567745,-0.008124342809990049,-0.01619876379733905
1669700378787138600,6.691138671875,-0.007500584888458252,-0.01060213110037148,-0.015276422504743094
1669700378797069600,6.701069580078125,0.037250410985946655,-0.006542818372743204,-0.025139434808760415
1669700378806999600,6.71099951171875,0.1920101800650358,-0.014049997398769483,0.004252543163353402
1669700378816930600,6.7209306640625,-0.020018705677986144,0.014964500161493196,-0.034120209501706994
