time,seconds_elapsed,z,y,x
1669700372143626000,0.0476259765625,0.0026308295782655478,-0.001332057174295187,-0.0004235696978867054
1669700372153557000,0.057556884765625,-0.0017039165832102299,0.0022175332996994257,0.00026221945881843567
1669700372163487000,0.067487060546875,0.0020556680392473936,0.003750448813661933,0.0018774266354739666
1669700372173418000,0.07741796875,0.0015547825023531914,0.004992925561964512,0.0020738360472023487
1669700372183348000,0.087347900390625,0.0007028372492641211,-0.0004196828231215477,-0.00016614887863397598
1669700372193279000,0.097279052734375,-0.00041401805356144905,0.001195978606119752,0.0019331518560647964
1669700372203209000,0.107208984375,0.0010278173722326756,0.0024010587949305773,-0.00005809357389807701
1669700372213140000,0.117139892578125,0.00034131272695958614,0.003154243342578411,0.0011512534692883492
1669700372223070000,0.127070068359375,-0.0022827000357210636,-0.00043995887972414494,-0.0019678412936627865
1669700372233001000,0.1370009765625,-0.0006483024917542934,-0.0015135995345190167,-0.0027562128379940987
1669700372242931000,0.146930908203125,-0.000397699186578393,-0.000851271441206336,-0.0037389190401881933
1669700372252862000,0.156862060546875,-0.0018297634087502956,-0.0021438319236040115,-0.002475540619343519
1669700372262792000,0.1667919921875,-0.00345029728487134,-0.00341202924028039,-0.002215083222836256
1669700372272723000,0.176722900390625,-0.003281916258856654,-0.003842392237856984,0.00044839922338724136
1669700372282653000,0.18665283203125,-0.002077102428302169,-0.0025315843522548676,0.0001727617345750332
1669700372292584000,0.196583984375,-0.0018788038287311792,0.003221940714865923,-0.0013327226042747498
1669700372302514000,0.206513916015625,-0.00195763329975307,0.001853075809776783,0.001593025866895914
1669700372312445000,0.21644482421875,0.000475867185741663,0.0018807761371135712,0.0007032710127532482
1669700372322375200,0.226375244140625,-0.0014868828002363443,0.0024323170073330402,0.0008673216216266155
1669700372332306000,0.236305908203125,0.0015457462286576629,-0.0018214925657957792,0.000497572124004364
1669700372342236200,0.246236083984375,0.002542034722864628,-0.0006789965555071831,0.0031125303357839584
1669700372352167000,0.2561669921875,-0.000862443121150136,-0.0006667997222393751,0.000523183960467577
1669700372362097200,0.26609716796875,-0.00020251167006790638,0.0007603885605931282,0.0016512987203896046
1669700372372028000,0.27602783203125,0.0002179767470806837,-0.003212597919628024,-0.000972201582044363
1669700372381958000,0.2859580078125,-0.001170062692835927,0.0010564492549747229,0.002578325103968382
1669700372391889000,0.295888916015625,-0.001648630015552044,-0.0015555697027593851,-0.0005213702097535133
1669700372401819000,0.30581884765625,-0.00018815230578184128,0.0006119771860539913,0.0006221910007297993
1669700372411750000,0.31575,0.00039081391878426075,0.0003855989780277014,0.0010488717816770077
1669700372421679900,0.325679931640625,0.00014979788102209568,0.0023014771286398172,0.0016978834755718708
1669700372431611100,0.335611083984375,0.0021418905816972256,0.0027983244508504868,0.0029402892105281353
1669700372441540900,0.345540771484375,0.0011599832214415073,-0.0002845507115125656,-0.001588416751474142
1669700372451472100,0.35547216796875,0.0015746589051559567,0.0006487085483968258,0.0002164267934858799
1669700372461401900,0.36540185546875,0.000489154364913702,-0.0014189695939421654,0.002532045356929302
1669700372471333000,0.3753330078125,-0.0014626176562160254,0.0005123959854245186,0.0005565187893807888
1669700372481262800,0.385262939453125,0.00003913859836757183,-0.00153610750567168,-0.0026350137777626514
1669700372491194000,0.395194091796875,0.0005471769254654646,-0.00039927265606820583,-0.0033051851205527782
1669700372501123800,0.405123779296875,-0.0032504908740520477,0.00025320169515907764,0.001660278532654047
1669700372511055000,0.41505517578125,0.0014688948867842555,-0.0026469805743545294,-0.0016700043343007565
1669700372520984800,0.42498486328125,-0.003968747332692146,-0.00160195620264858,-0.0011046151630580425
1669700372530916000,0.434916015625,0.0002837341744452715,-0.000950115267187357,0.00005741138011217117
1669700372540845800,0.444845703125,-0.0004118834622204304,-0.001205778680741787,0.00046833697706460953
1669700372550776800,0.45477685546875,0.0012364613357931376,-0.00227141659706831,0.0019957986660301685
1669700372560706800,0.464706787109375,0.00244021019898355,0.0003352856729179621,0.0018911357037723064
1669700372570637800,0.474637939453125,-0.0014263251796364784,-0.0006011484656482935,0.00005018152296543121
1669700372580567800,0.48456787109375,-0.00045373872853815556,0.0011450862511992455,0.002270725090056658
1669700372590498800,0.494498779296875,0.002577157225459814,-0.003623938886448741,-0.0008075330406427383
1669700372600429000,0.504428955078125,0.00018537230789661407,0.0009441815782338381,0.0018710740841925144
1669700372610359800,0.51435986328125,0.0019505989039316773,0.002034401521086693,0.0013729934580624104
1669700372620290000,0.5242900390625,0.00036841491237282753,0.00004528649151325226,-0.000422776211053133
1669700372630220800,0.534220703125,0.0003386859316378832,-0.0016504860250279307,-0.0018086601048707962
1669700372640151000,0.544151123046875,0.00043748924508690834,-0.0026672808453440666,0.00017912359908223152
1669700372650081800,0.554081787109375,0.0006584436632692814,-0.0012534868437796831,-0.002365274354815483
1669700372660012000,0.564011962890625,0.0024739205837249756,-0.000515791354700923,-0.0009141177870333195
1669700372669942800,0.57394287109375,0.00047668698243796825,-0.0006985343061387539,-0.0008709859102964401
1669700372679873000,0.583873046875,-0.0008628829382359982,-0.0029078929219394922,-0.0034547848626971245
1669700372689803000,0.593802978515625,0.0005860782694071531,-0.002079254947602749,-0.0013140221126377583
1669700372699734000,0.603734130859375,-0.00031859753653407097,0.0006952262483537197,-0.0007273275405168533
1669700372709665000,0.6136650390625,-0.000039600301533937454,-0.00024218764156103134,-0.0008145780302584171
1669700372719595000,0.623594970703125,0.0015734763583168387,-0.0015452724182978272,0.0005620098672807217
1669700372729524700,0.633524658203125,-0.00018243887461721897,0.003220789600163698,0.000832900870591402
1669700372739456000,0.6434560546875,0.0011182490270584822,-0.003471201518550515,-0.0009711245074868202
1669700372749385700,0.6533857421875,0.002698725089430809,0.0050727082416415215,0.004562067799270153
1669700372759317000,0.66331689453125,-0.0022134757600724697,0.0017735844012349844,0.001040835864841938
1669700372769247000,0.6732470703125,-0.0008097782265394926,-0.013514386489987373,-0.006362179294228554
1669700372779178000,0.683177978515625,0.002708790125325322,0.007153607904911041,0.004983952268958092
1669700372789107700,0.693107666015625,0.000302738044410944,-0.005935079418122768,-0.0007995911873877048
1669700372799039000,0.7030390625,-0.0009833024814724922,0.003403561422601342,0.002367173321545124
1669700372808969000,0.712968994140625,-0.00035174540244042873,-0.0014195616822689772,-0.0059597063809633255
1669700372818900000,0.72289990234375,0.0008424159605056047,0.0021030015777796507,0.0006651734001934528
1669700372828830000,0.732829833984375,0.0007316416595131159,-0.0004185582511126995,-0.0006518294103443623
1669700372838761000,0.742760986328125,0.0002860946115106344,0.00022033415734767914,-0.000987654086202383
1669700372848691000,0.75269091796875,0.0005776295438408852,-0.0005732227582484484,-0.00349239818751812
1669700372858622000,0.7626220703125,-0.0020312031265348196,-0.0003180920612066984,0.0023178202100098133
1669700372868552000,0.772552001953125,-0.0013654239010065794,0.0012391125783324242,0.0033789402805268764
1669700372878483000,0.78248291015625,0.0008250260725617409,0.0002963535953313112,0.0026987693272531033
1669700372888413000,0.792412841796875,0.0016497466713190079,-0.0005936657544225454,-0.0010605989955365658
1669700372898343700,0.80234375,0.0006412076763808727,0.00004549301229417324,-0.0008637914434075356
1669700372908274000,0.81227392578125,-0.0008132336661219597,0.00039297202602028847,0.0009713261388242245
1669700372918205000,0.822204833984375,0.0010075694881379604,-0.002711208537220955,0.0008592070080339909
1669700372928135000,0.832135009765625,0.00017350283451378345,-0.0006832233630120754,-0.000535549595952034
1669700372938066000,0.84206591796875,-0.0009498186409473419,-0.00022009946405887604,-0.0018125353381037712
1669700372947996000,0.851995849609375,-0.0017400523647665977,-0.002367614768445492,0.0006225081160664558
1669700372957927000,0.861927001953125,-0.0012257960624992847,0.0007155269850045443,0.00028348807245492935
1669700372967857000,0.87185693359375,-0.0008341493085026741,0.0015220451168715954,0.003475512843579054
1669700372977788000,0.881787841796875,-0.00018673459999263287,-0.0007813230622559786,-0.0013711736537516117
1669700372987718000,0.8917177734375,-0.001735457917675376,0.0021826205775141716,-0.0014255545102059841
1669700372997649000,0.90164892578125,0.0031636934727430344,-0.00022008339874446392,0.0021380214020609856
1669700373007579000,0.911578857421875,-0.00005300925113260746,0.002372494200244546,-0.0008129733614623547
1669700373017510000,0.921510009765625,0.0005424735136330128,0.0008158765267580748,0.0025063911452889442
1669700373027439900,0.93143994140625,-0.00013924157246947289,0.0005272091366350651,-0.0011492874473333359
1669700373037371000,0.941370849609375,0.0023098012898117304,-0.0005764048546552658,0.002384195104241371
1669700373047300900,0.95130078125,0.0007420727051794529,-0.0007466066163033247,0.002620523329824209
1669700373057232000,0.96123193359375,-0.0015229457058012486,-0.0011804355308413506,-0.0011158916167914867
1669700373067161900,0.971161865234375,0.0015355804935097694,-0.0017451064195483923,-0.0006931372918188572
1669700373077092900,0.9810927734375,0.00204344536177814,-0.00196428457275033,0.0014802683144807816
1669700373087023000,0.991023193359375,0.00018181861378252506,-0.000012751668691635132,-0.00024482980370521545
1669700373096953900,1.000953857421875,-0.0009553513955324888,-0.00580565957352519,-0.0028912131674587727
1669700373106884000,1.010884033203125,-0.0021117236465215683,-0.00029186601750552654,0.0008271089754998684
1669700373116814800,1.02081494140625,-0.002458733506500721,-0.00433427793905139,-0.002765495330095291
1669700373126745000,1.0307451171875,-0.00033292314037680626,-0.0009107596706598997,0.0008117249235510826
1669700373136675800,1.04067578125,-0.0011593021918088198,-0.0015288792783394456,-0.0018772687762975693
1669700373146606000,1.050606201171875,-0.00017965375445783138,0.0011613182723522186,-0.0007576127536594868
1669700373156536800,1.060536865234375,-0.0007983059622347355,-0.0005004941485822201,-0.00034295860677957535
1669700373166467000,1.070467041015625,0.0026940745301544666,-0.0038630999624729156,0.0026320945471525192
1669700373176397800,1.080397705078125,-0.0033547631464898586,-0.0009674450848251581,0.00018784543499350548
1669700373186327800,1.090327880859375,0.0028299882542341948,0.0020874585025012493,-0.0017377794720232487
1669700373196259000,1.100259033203125,0.0024571456015110016,-0.0011402927339076996,-0.00034361472353339195
1669700373206188800,1.110188720703125,0.0024281591176986694,-0.00018468452617526054,-0.0007764957845211029
1669700373216120000,1.1201201171875,-0.00042967917397618294,0.0004693879745900631,-0.0015157894231379032
1669700373226049800,1.1300498046875,0.0008866318967193365,-0.00016854307614266872,-0.0002166428603231907
1669700373235981000,1.13998095703125,0.00025759334675967693,-0.002593883778899908,-0.0010725827887654305
1669700373245910800,1.149910888671875,0.000013074604794383049,0.0004960459191352129,0.0021386356092989445
1669700373255842000,1.159842041015625,0.0009699484799057245,-0.0038907129783183336,-0.0011458410881459713
1669700373265771800,1.169771728515625,0.0012408641632646322,0.002740394789725542,0.0016033276915550232
1669700373275703000,1.179703125,-0.001631621504202485,-0.0013757868437096477,0.0017788298428058624
1669700373285632800,1.1896328125,0.0004639651160687208,0.003726310096681118,0.0018285391852259636
1669700373295564000,1.19956396484375,-0.0023379467893391848,0.0019395952112972736,0.0036765066906809807
1669700373305493800,1.20949365234375,-0.002350535476580262,0.0042442260310053825,0.0025352220982313156
1669700373315425000,1.219425048828125,0.0009943949989974499,0.003044737968593836,-0.00008532870560884476
1669700373325354800,1.229354736328125,-0.0012592324055731297,0.00300215813331306,0.000644223764538765
1669700373335286000,1.2392861328125,-9.010545909404755e-8,0.0017139872070401907,0.0008199922740459442
1669700373345215700,1.2492158203125,0.0005300957709550858,0.0019667595624923706,0.0034413496032357216
1669700373355147000,1.25914697265625,0.000974044669419527,0.002863179426640272,0.0004929639399051666
1669700373365077000,1.269076904296875,0.002253346610814333,0.003596413414925337,-0.0027476726099848747
1669700373375007700,1.2790078125,-0.0035150600597262383,0.001448840368539095,0.00008459901437163353
1669700373384938000,1.28893798828125,-0.0007700624410063028,-0.00466830562800169,-0.0022074123844504356
1669700373394868700,1.29886865234375,-0.00039295898750424385,0.00410361448302865,0.002420096192508936
1669700373404799000,1.308799072265625,-0.001467610476538539,-0.003900425508618355,-0.0007067024707794189
1669700373414729700,1.318729736328125,0.00010711653158068657,0.003585454076528549,-0.002602873370051384
1669700373424660000,1.328659912109375,-0.0013446260709315538,0.00045202625915408134,0.0016975551843643188
1669700373434590700,1.3385908203125,-0.0003765672445297241,0.004154885187745094,0.002287711948156357
1669700373444521000,1.34852099609375,-0.001240212470293045,-0.002137489151209593,-0.0021598502062261105
1669700373454451700,1.35845166015625,0.0017161627765744925,0.0012985209468752146,0.0019438150338828564
1669700373464382000,1.3683818359375,-0.0013413934502750635,-0.004711586982011795,-0.0028225770220160484
1669700373474313000,1.37831298828125,-0.0007179474923759699,0.006183671299368143,0.004984745755791664
1669700373484243000,1.388242919921875,-0.0019651392940431833,-0.00497082993388176,-0.0021653855219483376
1669700373494174000,1.398174072265625,-0.001247950131073594,0.006512187421321869,0.0024067298509180546
1669700373504104000,1.40810400390625,-0.05126317963004112,-0.0010306835174560547,-0.003645304124802351
1669700373514035000,1.418034912109375,-0.08964093029499054,0.0045555634424090385,0.006052596960216761
1669700373523965000,1.42796484375,-0.0959138348698616,0.008426191285252571,0.008254550397396088
1669700373533896000,1.43789599609375,-0.09917434304952621,-0.014537448063492775,-0.008851200342178345
1669700373543827000,1.447826904296875,-0.07668883353471756,0.011460735462605953,0.008460386656224728
1669700373553757000,1.4577568359375,-0.06940082460641861,-0.010966276749968529,-0.005087380297482014
1669700373563687700,1.467687744140625,-0.06939805299043655,0.0033305897377431393,0.00428059883415699
1669700373573618000,1.477617919921875,-0.07799793034791946,-0.0026231734082102776,-0.001000183168798685
1669700373583548000,1.4875478515625,-0.10886454582214355,0.006052160635590553,0.0048837680369615555
1669700373593479000,1.49747900390625,-0.11484919488430023,-0.006119817029684782,-0.002753645181655884
1669700373603410000,1.507409912109375,-0.10488983243703842,0.004365749657154083,0.0020406655967235565
1669700373613340000,1.51733984375,-0.09891050308942795,-0.005927634425461292,-0.0033008367754518986
1669700373623271000,1.52727099609375,-0.09163747727870941,-0.0001165946014225483,0.0013678483664989471
1669700373633201000,1.537200927734375,-0.07770861685276031,0.00494394451379776,0.004151384346187115
1669700373643131100,1.547131103515625,-0.054125234484672546,0.004241202026605606,0.0009711021557450294
1669700373653062000,1.557061767578125,-0.018267633393406868,-0.007705206051468849,-0.006531288847327232
1669700373662993000,1.566992919921875,-0.00043115834705531597,0.006284221075475216,0.003997435327619314
1669700373672923000,1.5769228515625,0.024361539632081985,-0.0015052587259560823,-0.0022077299654483795
1669700373682854000,1.58685400390625,0.03376784548163414,-0.0010367168579250574,-0.00004708906635642052
1669700373692783900,1.596783935546875,0.060783751308918,0.008170629851520061,0.0041860053315758705
1669700373702715000,1.60671484375,0.11529144644737244,0.004486853256821632,0.002155060414224863
1669700373712644900,1.616644775390625,0.15174105763435364,-0.004610504489392042,0.0005294675938785076
1669700373722576000,1.626575927734375,0.1744198501110077,0.004883351270109415,0.002813969738781452
1669700373732505900,1.636505859375,0.20848967134952545,0.009016843512654305,0.001407288946211338
1669700373742436900,1.646436767578125,0.21128587424755096,-0.013880850747227669,-0.009645063430070877
1669700373752367000,1.6563671875,0.2102416455745697,0.0014632181264460087,0.000506906770169735
1669700373762297900,1.6662978515625,0.21106889843940735,-0.007424420677125454,-0.007756856270134449
1669700373772228400,1.676228271484375,0.22297775745391846,0.0199560709297657,0.008663663640618324
1669700373782159400,1.686159423828125,0.24274420738220215,-0.00831176619976759,-0.0051100426353514194
1669700373792089300,1.69608935546875,0.15117301046848297,-0.018796363845467567,-0.015978137031197548
1669700373802020400,1.706020263671875,0.09771769493818283,0.022787969559431076,0.01096636988222599
1669700373811950000,1.7159501953125,0.06420287489891052,-0.0018220363417640328,-0.0002452717162668705
1669700373821881300,1.72588134765625,0.026443051174283028,0.016726592555642128,0.010190160945057869
1669700373831811300,1.735811279296875,0.043041203171014786,-0.018744848668575287,-0.011779320426285267
1669700373841742300,1.745742431640625,0.09494546800851822,0.013954577967524529,0.011335810646414757
1669700373851672300,1.75567236328125,0.1484595686197281,-0.009645557031035423,-0.00917106308043003
1669700373861603300,1.765603271484375,0.1904403418302536,0.014063234440982342,0.006371308583766222
1669700373871533300,1.775533203125,0.18677689135074615,-0.009612000547349453,-0.006185229867696762
1669700373881464300,1.78546435546875,0.21485596895217896,0.015507975593209267,0.004128334578126669
1669700373891394300,1.795394287109375,0.21754708886146545,-0.0029040558729320765,-0.0034502227790653706
1669700373901325300,1.8053251953125,0.1760353147983551,0.013620175421237946,0.0027294536121189594
1669700373911255300,1.81525537109375,0.12252975255250931,0.003675132989883423,0.0015842937864363194
1669700373921186300,1.825186279296875,0.04466039687395096,-0.004109919536858797,0.00036513200029730797
1669700373931116300,1.8351162109375,0.017092151567339897,-0.020914999768137932,-0.00990268588066101
1669700373941047600,1.845047607421875,-0.030891548842191696,0.03234820440411568,0.01547148171812296
1669700373950977300,1.854977294921875,-0.07062458246946335,-0.012556420639157295,-0.010817646980285645
1669700373960908300,1.864908203125,-0.1170542910695076,0.009741111658513546,0.0070471493527293205
1669700373970838300,1.87483837890625,-0.12205277383327484,0.004173241555690765,0.014194275252521038
1669700373980769300,1.884769287109375,-0.12518355250358582,0.028127016499638557,0.009487612172961235
1669700373990699300,1.89469921875,-0.14259743690490723,-0.0076866415329277515,-0.006393084302544594
1669700374000630300,1.90463037109375,-0.13071216642856598,-0.0016580322990193963,-0.0016258107498288155
1669700374010560300,1.914560302734375,-0.10092365741729736,0.023805515840649605,0.013116116635501385
1669700374020491300,1.9244912109375,-0.04959594085812569,-0.024426275864243507,-0.014725970104336739
1669700374030421200,1.934421142578125,-0.00521010160446167,0.02200407348573208,0.018821071833372116
1669700374040352300,1.944352294921875,0.07159432023763657,0.0035047715064138174,0.006478188559412956
1669700374050282200,1.9542822265625,0.15264897048473358,-0.007131094578653574,-0.0030362210236489773
1669700374060213200,1.964213134765625,0.2129727602005005,0.011178670451045036,0.0035433853045105934
1669700374070143200,1.974143310546875,0.22540812194347382,0.012872974388301373,0.013898554258048534
1669700374080074200,1.98407421875,0.24930909276008606,0.010859020985662937,0.009705285541713238
1669700374090004200,1.994004150390625,0.2747499942779541,0.021817397326231003,0.005574989132583141
1669700374099935200,2.003935302734375,0.2769974172115326,0.013172742910683155,0.0061439941637218
1669700374109865500,2.013865478515625,0.2814941704273224,0.01889241486787796,0.011533433571457863
1669700374119796200,2.023796142578125,0.25471410155296326,0.00501168193295598,0.004389487206935883
1669700374129726500,2.0337265625,0.1864738017320633,0.01834852620959282,0.002406231127679348
1669700374139657200,2.0436572265625,0.13647346198558807,0.024384694173932076,0.0058250087313354015
1669700374149587500,2.05358740234375,0.12056213617324829,0.0058267246931791306,0.006857782136648893
1669700374159518200,2.063518310546875,0.166818767786026,0.011499662883579731,0.009103866294026375
1669700374169448400,2.073448486328125,0.2613855004310608,0.03630860894918442,0.01610584929585457
1669700374179379200,2.083379150390625,0.4036317467689514,0.0018412901554256678,0.006176010239869356
1669700374189309400,2.093309326171875,0.5568114519119263,0.007568151690065861,0.0024816724471747875
1669700374199240200,2.103240234375,0.6490229964256287,0.003179264022037387,0.0035366062074899673
1669700374209170400,2.11317041015625,0.6661569476127625,0.023765498772263527,-0.002291988581418991
1669700374219101400,2.123101318359375,0.6269936561584473,0.00953577272593975,-0.0006152470596134663
1669700374229031400,2.133031494140625,0.5343356132507324,0.0004109840374439955,-0.002857362385839224
1669700374238962400,2.14296240234375,0.3747484087944031,-0.002733080880716443,-0.0028800400905311108
1669700374248892400,2.152892333984375,0.2231605052947998,0.008154187351465225,-0.0005993088707327843
1669700374258823400,2.162823486328125,0.06042551249265671,0.006074273958802223,0.0017270725220441818
1669700374268753400,2.17275341796875,-0.06608129292726517,-0.01124186534434557,0.004326317459344864
1669700374278684400,2.182684326171875,-0.15450242161750793,-0.011028625071048737,-0.007569027133285999
1669700374288614400,2.192614501953125,-0.22203832864761353,-0.011905336752533913,-0.0035745517816394567
1669700374298545400,2.20254541015625,-0.23426945507526398,-0.01019996963441372,-0.0026805000379681587
1669700374308475100,2.21247509765625,-0.14585277438163757,-0.004340749699622393,0.005634687375277281
1669700374318406400,2.222406494140625,-0.06841118633747101,-0.012182867154479027,-0.008109440095722675
1669700374328336100,2.232336181640625,0.011626394465565681,-0.013159448280930519,-0.007936068810522556
1669700374338267400,2.242267333984375,0.04950670152902603,-0.0033126999624073505,-0.006536903791129589
1669700374348197000,2.252197021484375,0.03012954257428646,-0.004357458092272282,-0.002610339317470789
1669700374358128400,2.26212841796875,0.0003730752505362034,0.01178690418601036,0.0015372163616120815
1669700374368058400,2.272058349609375,-0.02276393584907055,0.023919200524687767,0.009206321090459824
1669700374377989400,2.2819892578125,-0.07224097847938538,-0.00675932876765728,-0.002927246503531933
1669700374387919400,2.29191943359375,-0.10620906203985214,0.01615903526544571,0.00689848605543375
1669700374397850400,2.301850341796875,-0.09358451515436172,0.013201608322560787,0.00695436168462038
1669700374407780400,2.3117802734375,-0.06971327215433121,-0.022104185074567795,-0.005722285248339176
1669700374417711400,2.32171142578125,-0.04060724005103111,0.012194585055112839,0.019529204815626144
1669700374427641300,2.331641357421875,0.02480825036764145,0.002131831366568804,0.012728290632367134
1669700374437572400,2.341572265625,0.15939448773860931,0.003634467488154769,0.004592403769493103
1669700374447502300,2.35150244140625,0.30834320187568665,-0.0028069200925529003,0.016819242388010025
1669700374457433300,2.361433349609375,0.4224640429019928,-0.006197226699441671,0.003582137171179056
1669700374467363300,2.37136328125,0.5593427419662476,-0.00860765390098095,-0.003274437040090561
1669700374477294000,2.381294189453125,0.6562638282775879,0.009153175167739391,0.0075331940315663815
1669700374487224300,2.391224365234375,0.701909065246582,0.01639510877430439,-0.00873578991740942
1669700374497155300,2.4011552734375,0.709676206111908,0.014673978090286255,0.00727951480075717
1669700374507085300,2.411085205078125,0.7070778012275696,0.020739059895277023,-0.0015699025243520737
1669700374517016300,2.421016357421875,0.6622809171676636,0.007583833299577236,-0.020935293287038803
1669700374526946300,2.4309462890625,0.5627878904342651,0.01184941828250885,0.009660165756940842
1669700374536877300,2.440877197265625,0.4718131124973297,0.002656972501426935,0.019825607538223267
1669700374546807300,2.450807373046875,0.4061259925365448,0.018225546926259995,0.0031142723746597767
1669700374556738300,2.46073828125,0.3629800081253052,-0.008175656199455261,0.0012931590899825096
1669700374566668300,2.470668212890625,0.3139975368976593,-0.007600945420563221,-0.0014147432520985603
1669700374576599300,2.480599365234375,0.2848408818244934,0.007419596426188946,0.00603087991476059
1669700374586530300,2.4905302734375,0.21600563824176788,-0.030179711058735847,-0.011274874210357666
1669700374596460300,2.500460205078125,0.14728288352489471,0.0035453333985060453,0.00413893535733223
1669700374606391600,2.5103916015625,0.07964284718036652,-0.008225838653743267,-0.007676710840314627
1669700374616321300,2.5203212890625,0.028568260371685028,0.009511231444776058,0.008334565907716751
1669700374626252300,2.530252197265625,-0.040405213832855225,0.00537214707583189,0.008883176371455193
1669700374636182300,2.540182373046875,-0.12268009036779404,0.020481357350945473,0.014076187275350094
1669700374646113300,2.55011328125,-0.17497684061527252,0.009864932857453823,0.00824519619345665
1669700374656043300,2.560043212890625,-0.22954288125038147,-0.001422076253220439,0.0004943320527672768
1669700374665974300,2.569974365234375,-0.26067444682121277,0.006433716043829918,0.003671749494969845
1669700374675904300,2.579904296875,-0.3137635886669159,0.009348001331090927,0.01059948094189167
1669700374685835300,2.589835205078125,-0.3623867928981781,-0.015092093497514725,-0.003885718062520027
1669700374695765200,2.59976513671875,-0.3770517408847809,0.003116355277597904,0.006809459999203682
1669700374705696300,2.6096962890625,-0.32069286704063416,-0.007114443928003311,0.0003534243442118168
1669700374715626200,2.619626220703125,-0.18008962273597717,0.0033189679961651564,0.004698361270129681
1669700374725557200,2.62955712890625,-0.07483910024166107,-0.0013697933172807097,0.0015563638880848885
1669700374735487200,2.6394873046875,-0.0028031158726662397,-0.00010087015107274055,-0.0009920303709805012
1669700374745418200,2.649418212890625,-0.0012832495849579573,-0.002741927048191428,-0.0011685979552567005
1669700374755348200,2.65934814453125,-0.0010875219013541937,-0.0006253975443542004,-0.0009267060086131096
1669700374765279200,2.669279296875,-0.0019748869817703962,0.00009338976815342903,0.0023399274796247482
1669700374775209200,2.679209228515625,-0.002481672214344144,-0.002346447668969631,0.0004455437883734703
1669700374785140000,2.689139892578125,-0.0004661919083446264,0.0010227174498140812,0.001973133534193039
1669700374795070200,2.6990703125,0.000510290963575244,0.000045325374230742455,0.0021066097542643547
1669700374805001000,2.7090009765625,0.0002839223016053438,0.0006056546699255705,0.002542835660278797
1669700374814931200,2.71893115234375,-0.0004791941028088331,0.00025907508097589016,0.0014839950017631054
1669700374824862000,2.728862060546875,-0.0024661787319928408,0.0003501551691442728,-0.0012063300237059593
1669700374834792200,2.738792236328125,-0.00042161718010902405,0.00038327788934111595,0.004266110714524984
1669700374844723000,2.748722900390625,-0.0021281708031892776,-0.0019041110062971711,0.0014096046797931194
1669700374854653200,2.758653076171875,-0.0019203622359782457,-0.0030672261491417885,-0.0027731782756745815
1669700374864584000,2.768583984375,-0.0008292647544294596,-0.0030573722906410694,0.00019544735550880432
1669700374874514200,2.77851416015625,-0.0014256739523261786,-0.0013681752607226372,-0.0025511314161121845
1669700374884445200,2.788445068359375,0.0010060584172606468,0.0003026919439435005,0.00009977910667657852
1669700374894375200,2.798375244140625,0.0011662202887237072,0.000047780340537428856,0.0006886478513479233
1669700374904306200,2.80830615234375,-0.00011449377052485943,0.00018200348131358624,-0.0008045868016779423
1669700374914236200,2.818236083984375,0.001294178538955748,0.001428145682439208,-0.00013314466923475266
1669700374924167200,2.828167236328125,0.0006962988991290331,0.0010643575806170702,0.000813076738268137
1669700374934097200,2.83809716796875,0.0007899010088294744,0.001328078331425786,0.001782751176506281
1669700374944028200,2.848028076171875,0.0013134784530848265,-0.001149992924183607,0.0012131002731621265
1669700374953958100,2.857958251953125,0.006965737324208021,0.006853872910141945,-0.0032097739167511463
1669700374963889200,2.86788916015625,0.04307660087943077,0.001996001461520791,0.0009815087541937828
1669700374973819100,2.877819091796875,0.08443008363246918,-0.0015916693955659866,-0.0015322747640311718
1669700374983750100,2.887750244140625,0.09926363080739975,0.0026086680591106415,0.0008997237309813499
1669700374993680100,2.89768017578125,0.08834240585565567,-0.004933187738060951,-0.0021520513109862804
1669700375003611100,2.907611083984375,0.08342435210943222,0.0009460065048187971,-0.0024561844766139984
1669700375013540900,2.917540771484375,0.06249694153666496,0.009441398084163666,0.0050405957736074924
1669700375023472000,2.92747216796875,0.035618990659713745,0.0017935989890247583,-0.00012859981507062912
1669700375033401900,2.93740185546875,-0.011918345466256142,-0.01118498109281063,-0.005304066464304924
1669700375043333000,2.9473330078125,-0.06923862546682358,0.014076699502766132,0.005502242594957352
1669700375053263000,2.95726318359375,-0.11972042173147202,0.006250352133065462,0.002344454638659954
1669700375063194000,2.967194091796875,-0.18226343393325806,-0.004403624217957258,-0.004152592737227678
1669700375073124000,2.9771240234375,-0.21878844499588013,-0.002376531483605504,-0.00423938874155283
1669700375083055000,2.98705517578125,-0.28388726711273193,0.004013457335531712,0.00499352440237999
1669700375092985000,2.996985107421875,-0.339898943901062,0.0028546361718326807,-0.0019620745442807674
1669700375102916000,3.006916015625,-0.35998106002807617,-0.00422857329249382,-0.013104474171996117
1669700375112846000,3.01684619140625,-0.3648838400840759,0.02600313350558281,0.009939334355294704
1669700375122777000,3.026777099609375,-0.3784042000770569,-0.004463694989681244,-0.009241017512977123
1669700375132707000,3.03670703125,-0.40992501378059387,0.01013032253831625,0.005242189392447472
1669700375142638000,3.04663818359375,-0.4366716742515564,-0.0036802978720515966,-0.017417315393686295
1669700375152568000,3.056568115234375,-0.4300524592399597,0.026899762451648712,0.003912696149200201
1669700375162499000,3.0664990234375,-0.40442514419555664,-0.02564547210931778,-0.025520561262965202
1669700375172429000,3.076428955078125,-0.3663092255592346,0.008827460929751396,-0.006459801457822323
1669700375182360000,3.086360107421875,-0.32197609543800354,-0.001448080176487565,-0.009675568901002407
1669700375192291000,3.096291015625,-0.28928282856941223,0.025578660890460014,0.008042210713028908
1669700375202221000,3.106220947265625,-0.261953204870224,0.006596713792532682,-0.004030697047710419
1669700375212152000,3.116152099609375,-0.23264479637145996,-0.0036791677121073008,-0.0009477892890572548
1669700375222082000,3.12608203125,-0.21766558289527893,0.02447337470948696,-0.006806477438658476
1669700375232013000,3.136012939453125,-0.2218635082244873,-0.0037349264603108168,-0.0017322092317044735
1669700375241943000,3.145943115234375,-0.2174229621887207,0.001387397525832057,-0.0022699013352394104
1669700375251874000,3.1558740234375,-0.19780102372169495,-0.015500147826969624,-0.024928592145442963
1669700375261804000,3.165803955078125,-0.18537738919258118,0.01361299678683281,-0.004732775501906872
1669700375271735300,3.1757353515625,-0.19149291515350342,-0.006686517968773842,-0.017051193863153458
1669700375281665000,3.1856650390625,-0.1998845338821411,0.023990169167518616,0.004481262993067503
1669700375291596300,3.19559619140625,-0.21106068789958954,-0.006057524122297764,-0.003050010185688734
1669700375301526000,3.205526123046875,-0.20146772265434265,-0.013155912980437279,-0.012990791350603104
1669700375311457300,3.215457275390625,-0.15405221283435822,0.016403190791606903,-0.0030129062943160534
1669700375321387000,3.225386962890625,-0.10100683569908142,-0.003071974031627178,-0.0036786962300539017
1669700375331318000,3.235318115234375,-0.07908814400434494,-0.006733368616551161,-0.02328602224588394
1669700375341248000,3.245248046875,-0.09454965591430664,-0.0041556949727237225,-0.01959487982094288
1669700375351179000,3.255178955078125,-0.1280820667743683,0.02620280161499977,0.005363637115806341
1669700375361109000,3.26510888671875,-0.1376718431711197,0.009678952395915985,-0.003154749982059002
1669700375371040000,3.2750400390625,-0.12495415657758713,0.008866514079272747,-0.006557985208928585
1669700375380970000,3.284969970703125,-0.09273497015237808,-0.004920138046145439,-0.011412395164370537
1669700375390901000,3.29490087890625,-0.039742402732372284,0.024775253608822823,0.007230599410831928
1669700375400831000,3.3048310546875,0.00254460284486413,-0.006779209710657597,-0.01950407586991787
1669700375410762000,3.314761962890625,-0.005776465404778719,-0.0008606933988630772,-0.0075313192792236805
1669700375420692000,3.32469189453125,-0.03602118790149689,-0.001193322241306305,-0.003108607605099678
1669700375430623000,3.334623046875,-0.07640401273965836,-0.007961120456457138,-0.015634234994649887
1669700375440553200,3.34455322265625,-0.1120309829711914,0.0018683408852666616,-0.00554431788623333
1669700375450484000,3.35448388671875,-0.13745327293872833,-0.008471799083054066,-0.0006584054790437222
1669700375460414200,3.364414306640625,-0.1362905353307724,0.011802312918007374,0.008228829130530357
1669700375470345000,3.374344970703125,-0.1110135018825531,-0.0013259698171168566,-0.000009396113455295563
1669700375480275200,3.384275146484375,-0.08012109994888306,-0.016279885545372963,-0.01324077881872654
1669700375490206000,3.3942060546875,-0.08186586946249008,0.00478625250980258,0.003745775204151869
1669700375500136200,3.40413623046875,-0.06164555624127388,0.0034381598234176636,0.0009443960152566433
1669700375510067000,3.41406689453125,-0.05952700227499008,0.0032221206929534674,0.0021556969732046127
1669700375519997200,3.4239970703125,-0.07376639544963837,0.0007115586195141077,0.00039348285645246506
1669700375529928000,3.433927978515625,-0.05413751304149628,-0.0024172416888177395,-0.003541783895343542
1669700375539858200,3.443858154296875,-0.055635541677474976,-0.0023211014922708273,-0.0008346806280314922
1669700375549789200,3.4537890625,-0.04403231665492058,0.001402808353304863,-0.0008427216671407223
1669700375559719200,3.46371923828125,-0.021917695179581642,-0.0011642125900834799,-0.0016784216277301311
1669700375569650200,3.473650146484375,-0.00364840985275805,0.0015860339626669884,-0.001186269335448742
1669700375579580200,3.483580078125,-0.00039163045585155487,0.0010294332168996334,-0.0014842771925032139
1669700375589511200,3.49351123046875,0.00017385673709213734,-0.0004893557634204626,0.001242482103407383
1669700375599441200,3.503441162109375,-0.0003015175461769104,0.0005985456518828869,0.0021604737266898155
1669700375609372200,3.5133720703125,-0.0006897221319377422,-0.0019627558067440987,0.002813240047544241
1669700375619302100,3.52330224609375,0.0015092500252649188,0.0018884416203945875,-0.0007242369465529919
1669700375629233200,3.533233154296875,-0.002261337824165821,-0.0005040031392127275,-0.0012768683955073357
1669700375639163100,3.5431630859375,-0.0006027210038155317,0.0006081329192966223,-0.0022044475190341473
1669700375649094100,3.55309423828125,-0.001288590719923377,0.00017648027278482914,-0.0033581717871129513
1669700375659025200,3.563025146484375,-0.0014640928711742163,-0.0013987794518470764,-0.00007396144792437553
1669700375668955100,3.572955078125,-0.001997684594243765,-0.00152239587623626,0.0016249120235443115
1669700375678886100,3.58288623046875,0.0020844084210693836,0.000033955322578549385,-0.001463023480027914
1669700375688816000,3.592816162109375,0.0025505528319627047,0.0014681373722851276,-0.0008916547521948814
1669700375698747100,3.6027470703125,-0.0002473641652613878,-0.0016248580068349838,0.00027401093393564224
1669700375708677000,3.612677001953125,-0.00017625046893954277,0.00041187042370438576,0.0021692095324397087
1669700375718608100,3.622608154296875,-0.00006439769640564919,-0.0007431425619870424,-0.00028009945526719093
1669700375728538000,3.6325380859375,0.0010908108670264482,0.0006571738049387932,0.00017253495752811432
1669700375738469000,3.64246923828125,0.0016559335635975003,-0.002873379038646817,-0.0015414757654070854
1669700375748399000,3.652399169921875,0.0389556884765625,0.0021092176903039217,-0.0022710012272000313
1669700375758330000,3.662330078125,0.11655834317207336,-0.0030940664000809193,0.00010347319766879082
1669700375768260000,3.672260009765625,0.10392522811889648,0.00039818789809942245,0.001461212057620287
1669700375778191600,3.682191650390625,0.07370607554912567,-0.0006042257882654667,0.00010140193626284599
1669700375788121300,3.692121337890625,0.057581789791584015,0.0014733760617673397,-0.0018609613180160522
1669700375798052600,3.702052490234375,0.06912580132484436,-0.0012734080664813519,-0.001721678301692009
1669700375807982600,3.711982666015625,0.09741073101758957,0.00025204475969076157,0.0006143450736999512
1669700375817913600,3.72191357421875,0.11977329105138779,0.00037827854976058006,-0.0006575803272426128
1669700375827843600,3.731843505859375,0.16842995584011078,0.00034752488136291504,0.0026889219880104065
1669700375837774600,3.741774658203125,0.22457338869571686,0.0032817956525832415,-0.0032177031971514225
1669700375847704600,3.75170458984375,0.2581229507923126,0.004009307827800512,0.0007306812331080437
1669700375857635600,3.761635498046875,0.26244235038757324,-0.00382730970159173,-0.006547471508383751
1669700375867565600,3.771565673828125,0.30099567770957947,-0.002079656347632408,-0.0005756844766438007
1669700375877496600,3.78149658203125,0.32343971729278564,-0.0014298449968919158,0.0008845273405313492
1669700375887426600,3.791426513671875,0.3375903069972992,-0.002949923975393176,-0.005844157189130783
1669700375897357600,3.801357666015625,0.40819334983825684,0.008121369406580925,-0.0012512695975601673
1669700375907287600,3.81128759765625,0.39730435609817505,-0.0015029296046122909,-0.004426692612469196
1669700375917218600,3.821218505859375,0.4044155478477478,0.0026018007192760706,0.0011606193147599697
1669700375927148500,3.8311484375,0.4189235270023346,0.007201980799436569,0.0013045589439570904
1669700375937079600,3.84107958984375,0.47751572728157043,-0.010732279159128666,-0.01529092900454998
1669700375947009500,3.851009521484375,0.5053977370262146,-0.0022770087234675884,-0.005568260792642832
1669700375956940500,3.8609404296875,0.5596263408660889,-0.02565716579556465,-0.012951608747243881
1669700375966870500,3.87087060546875,0.5541592836380005,0.010637074708938599,-0.0018538753502070904
1669700375976801500,3.880801513671875,0.5058180689811707,-0.0012025395408272743,-0.0020541450940072536
1669700375986731500,3.8907314453125,0.43598347902297974,0.008468732237815857,0.001077580265700817
1669700375996662500,3.90066259765625,0.3873421847820282,-0.0018076080596074462,-0.0006566704250872135
1669700376006592500,3.910592529296875,0.3772100806236267,0.004348866641521454,0.0025894148275256157
1669700376016523500,3.9205234375,0.38151267170906067,-0.0023388636764138937,0.00008923886343836784
1669700376026453500,3.93045361328125,0.3249732255935669,-0.00801379419863224,-0.010039561428129673
1669700376036384500,3.940384521484375,0.2841424345970154,-0.013429597951471806,-0.013047602027654648
1669700376046314500,3.950314453125,0.2402300387620926,-0.00634752307087183,-0.002230761107057333
1669700376056244700,3.96024462890625,0.23801082372665405,-0.0024728900752961636,-0.004755704198032618
1669700376066175500,3.970175537109375,0.2066640406847,0.0024436358362436295,0.0034087561070919037
1669700376076105500,3.98010546875,0.1558983325958252,-0.02216796763241291,-0.011323317885398865
1669700376086036700,3.99003662109375,0.16206876933574677,-0.004359043203294277,0.001821108628064394
1669700376095966500,3.999966552734375,0.18889771401882172,0.013866832479834557,0.01736491359770298
1669700376105897700,4.009897705078125,0.13022397458553314,0.0050440095365047455,-0.001701032742857933
1669700376115827500,4.019827392578125,0.06798698008060455,0.012071291916072369,0.0027610938996076584
1669700376125758700,4.0297587890625,0.00806836411356926,0.02486448362469673,0.015636015683412552
1669700376135688400,4.0396884765625,-0.05320911109447479,0.017366619780659676,0.010144045576453209
1669700376145619700,4.04961962890625,-0.0889693945646286,0.025779711082577705,0.02054409123957157
1669700376155549400,4.059549560546875,-0.1549483984708786,-0.03789646923542023,-0.017690910026431084
1669700376165480700,4.069480712890625,-0.20388205349445343,0.0119114825502038,0.008354203775525093
1669700376175410400,4.079410400390625,-0.2581636607646942,-0.03567228093743324,-0.02023909240961075
1669700376185341700,4.089341796875,-0.29889315366744995,-0.010924254544079304,0.008535951375961304
1669700376195271400,4.099271484375,-0.31239140033721924,-0.018412530422210693,-0.011918190866708755
1669700376205202700,4.10920263671875,-0.3017420470714569,-0.00833892822265625,0.005402090027928352
1669700376215132400,4.11913232421875,-0.33892643451690674,-0.008663034997880459,0.00046991556882858276
1669700376225063700,4.129063720703125,-0.352658748626709,0.006803749594837427,0.011976462788879871
1669700376234993400,4.138993408203125,-0.3461267948150635,0.011567078530788422,0.01143264677375555
1669700376244924700,4.148924560546875,-0.3222622275352478,-0.010787267237901688,-0.003390619531273842
1669700376254854700,4.158854736328125,-0.2897687256336212,0.02060341276228428,0.018719209358096123
1669700376264785400,4.168785400390625,-0.2931995987892151,-0.004830296151340008,0.007418033666908741
1669700376274715600,4.178715576171875,-0.26530617475509644,0.007715323474258184,0.007190333679318428
1669700376284646400,4.188646484375,-0.28260645270347595,0.004722565412521362,0.005739572457969189
1669700376294576600,4.19857666015625,-0.3431691527366638,-0.007914399728178978,0.00114348903298378
1669700376304507400,4.20850732421875,-0.37450581789016724,-0.018563196063041687,0.0017532669007778168
1669700376314437600,4.218437744140625,-0.3871459662914276,0.007041499484330416,0.006068387068808079
1669700376324368400,4.228368408203125,-0.42259299755096436,-0.03207448869943619,0.0008289352990686893
1669700376334299600,4.238299560546875,-0.4657348692417145,0.004018798470497131,0.01887265034019947
1669700376344229400,4.2482294921875,-0.49398475885391235,0.003382196882739663,0.015266765840351582
1669700376354160600,4.25816064453125,-0.4790622591972351,-0.007798552513122559,0.013246224261820316
1669700376364090600,4.268090576171875,-0.4829629063606262,-0.017866821959614754,0.006468701642006636
1669700376374021600,4.278021728515625,-0.4592277705669403,-0.04695440083742142,-0.02242792770266533
1669700376383951600,4.28795166015625,-0.46639755368232727,0.02286645397543907,0.02422415278851986
1669700376393882600,4.297882568359375,-0.5460910797119141,0.007886437699198723,0.01677635684609413
1669700376403812600,4.3078125,-0.6067631244659424,-0.013729075901210308,0.011839398182928562
1669700376413743600,4.31774365234375,-0.6348600387573242,0.007847322151064873,0.015575545839965343
1669700376423673600,4.327673583984375,-0.6628621220588684,-0.007319229189306498,0.027568483725190163
1669700376433604400,4.337604248046875,-0.626206636428833,-0.001589437946677208,0.01846633106470108
1669700376443534600,4.34753466796875,-0.6065599322319031,-0.02369840256869793,0.0037478432059288025
1669700376453465300,4.35746533203125,-0.6347396373748779,-0.0010484831873327494,-0.000908960122615099
1669700376463395600,4.3673955078125,-0.6134068369865417,-0.01986667327582836,-0.005663929041475058
1669700376473326600,4.37732666015625,-0.5851704478263855,-0.023867540061473846,0.007900349795818329
1669700376483256600,4.387256591796875,-0.5671278834342957,-0.01875472068786621,-0.0036289398558437824
1669700376493187600,4.3971875,-0.5384560227394104,-0.011423037387430668,0.009419217705726624
1669700376503118600,4.40711865234375,-0.4839474856853485,-0.018046002835035324,-0.00033906614407896996
1669700376513048600,4.417048583984375,-0.40643510222435,-0.002498734276741743,0.0025968020781874657
1669700376522979600,4.4269794921875,-0.32505154609680176,-0.04628133401274681,-0.011460848152637482
1669700376532909600,4.43690966796875,-0.3699721395969391,0.003932302817702293,0.003244061954319477
1669700376542840600,4.446840576171875,-0.4013308882713318,-0.008760150521993637,0.005081892944872379
1669700376552771600,4.456771484375,-0.4003087878227234,-0.004229048267006874,0.004742606543004513
1669700376562701600,4.46670166015625,-0.3999912440776825,-0.019911261275410652,-0.010426538065075874
1669700376572632600,4.476632568359375,-0.41815000772476196,-0.017333321273326874,-0.006422475911676884
1669700376582562600,4.4865625,-0.4506305754184723,-0.005468952003866434,-0.011933835223317146
1669700376592493600,4.49649365234375,-0.5029563307762146,-0.02412998676300049,-0.006316696293652058
1669700376602423600,4.506423583984375,-0.550835907459259,0.013693169690668583,0.025655703619122505
1669700376612354600,4.5163544921875,-0.5997622013092041,-0.0017513006459921598,0.006524887401610613
1669700376622284500,4.526284423828125,-0.5685317516326904,0.01030271127820015,0.011262599378824234
1669700376632215600,4.536215576171875,-0.47821488976478577,0.017856501042842865,0.015437370166182518
1669700376642145500,4.5461455078125,-0.3951025605201721,0.006353185512125492,0.00806279107928276
1669700376652076500,4.55607666015625,-0.317516952753067,0.005039181560277939,0.002961772494018078
1669700376662006500,4.566006591796875,-0.27031415700912476,0.004545907489955425,0.0070312912575900555
1669700376671937500,4.5759375,-0.2534526288509369,0.005556045100092888,0.011617254465818405
1669700376681867500,4.585867431640625,-0.2589918375015259,0.00806579552590847,0.020872322842478752
1669700376691798800,4.595798828125,-0.2344348132610321,-0.007612500339746475,-0.010742859914898872
1669700376701728500,4.605728515625,-0.26763370633125305,0.033627208322286606,0.01689545065164566
1669700376711659800,4.61565966796875,-0.267300546169281,0.012811142951250076,0.012657828629016876
1669700376721589500,4.625589599609375,-0.2126598358154297,0.017593661323189735,0.00294203357771039
1669700376731520800,4.635520751953125,-0.14225012063980103,0.018859460949897766,0.021619580686092377
1669700376741450500,4.645450439453125,-0.10192015767097473,0.0064444467425346375,0.003500462044030428
1669700376751381800,4.6553818359375,-0.04601028189063072,0.015795603394508362,0.0010285158641636372
1669700376761311500,4.6653115234375,-0.01935323141515255,0.01582564413547516,0.009866159409284592
1669700376771242500,4.675242431640625,-0.0469513013958931,0.02684074454009533,0.016790909692645073
1669700376781172000,4.685171875,-0.06778456270694733,-0.015358530916273594,-0.005622821860015392
1669700376791103000,4.69510302734375,-0.04157426580786705,0.001978647895157337,0.006242891773581505
1669700376801033000,4.705032958984375,-0.020865753293037415,-0.029653586447238922,-0.012229427695274353
1669700376810964000,4.7149638671875,0.03331173211336136,0.0133838951587677,0.011968586593866348
1669700376820894000,4.72489404296875,0.0855628103017807,0.009466757997870445,0.010351479053497314
1669700376830825000,4.734824951171875,0.1635734587907791,-0.01728655956685543,-0.015943240374326706
1669700376840756000,4.744755859375,0.2247716784477234,0.01797891966998577,0.007257556542754173
1669700376850686000,4.75468603515625,0.2644338607788086,-0.007752276491373777,-0.0005782623775303364
1669700376860617000,4.764616943359375,0.30202436447143555,0.0084786806255579,0.0036566024646162987
1669700376870547000,4.774546875,0.28356680274009705,0.002314262092113495,0.0049969712272286415
1669700376880478000,4.78447802734375,0.1902855783700943,-0.006281984969973564,-0.00985682662576437
1669700376890408000,4.794407958984375,0.16262546181678772,-0.0058987559750676155,-0.00159916328266263
1669700376900339000,4.8043388671875,0.16626690328121185,0.010101625695824623,0.00820150040090084
1669700376910269000,4.81426904296875,0.19086812436580658,0.0035803429782390594,0.0019441372714936733
1669700376920200000,4.824199951171875,0.2375892698764801,0.006096457596868277,0.003197044599801302
1669700376930130000,4.8341298828125,0.2511511445045471,0.00781686045229435,0.00038554519414901733
1669700376940061000,4.84406103515625,0.27947768568992615,-0.0011614426039159298,-0.004435626789927483
1669700376949991000,4.853990966796875,0.30231615900993347,0.004659694619476795,0.002053164876997471
1669700376959922000,4.863921875,0.2433094084262848,0.0032178726978600025,-0.0006380113773047924
1669700376969852000,4.873851806640625,0.2068091779947281,0.005231222603470087,0.000890376977622509
1669700376979783200,4.883783203125,0.1465274691581726,-0.0016018179012462497,-0.0015133772976696491
1669700376989713000,4.893712890625,0.10194696485996246,-0.000054255127906799316,0.0006429841741919518
1669700376999644200,4.90364404296875,0.05358313024044037,-0.000032192328944802284,-0.00009189173579216003
1669700377009574000,4.913573974609375,0.006407896056771278,0.0011523815337568521,-0.0012495676055550575
1669700377019505000,4.9235048828125,-0.0003237430937588215,0.0007579538505524397,0.0007919492200016975
1669700377029435000,4.933434814453125,0.00008824793621897697,0.000237305648624897,0.0003866157494485378
1669700377039366000,4.943365966796875,-0.0013155888300389051,-0.0004781449679285288,0.0005082958377897739
1669700377049296000,4.9532958984375,0.0016093607991933823,0.0007703450974076986,-0.0044646249152719975
1669700377059227000,4.963226806640625,-0.001928661484271288,-0.0006908206269145012,-0.00040402449667453766
1669700377069156900,4.973156982421875,-0.0015219966880977154,0.00021412153728306293,-0.0017731557600200176
1669700377079087900,4.983087890625,0.0003645149990916252,-0.001003445591777563,0.0021810014732182026
1669700377089019100,4.99301904296875,0.0007171174511313438,0.0002825949341058731,-0.0012885648757219315
1669700377098948900,5.002948974609375,0.0009704290423542261,0.0006428488995879889,0.0008579380810260773
1669700377108880100,5.012880126953125,0.0000391216017305851,-0.00164347467944026,0.0002637868747115135
1669700377118809900,5.022809814453125,-0.0010176070500165224,-0.00045954599045217037,0.0029553654603660107
1669700377128741000,5.0327412109375,-0.0005406348500400782,-0.00004569091834127903,0.0024520275183022022
1669700377138670800,5.0426708984375,-0.00125152338296175,0.002479714574292302,0.00038209883496165276
1669700377148602000,5.05260205078125,-0.0019135852344334126,0.0010195036884397268,0.00022949976846575737
1669700377158531800,5.06253173828125,0.0004570111632347107,-0.0009010550566017628,0.0008324026130139828
1669700377168463000,5.072463134765625,-0.0009121198672801256,-0.0022930894047021866,0.002582897897809744
1669700377178392800,5.082392822265625,-0.001001452561467886,0.00007008668035268784,0.0014087478630244732
1669700377188324000,5.092323974609375,0.0007346619386225939,0.002288233255967498,-0.0014080777764320374
1669700377198253800,5.10225390625,0.00021632621064782143,-0.0009015609975904226,0.0010529235005378723
1669700377208184800,5.112184814453125,-0.0016883665230125189,0.002540308516472578,-0.0001905062235891819
1669700377218114800,5.12211474609375,0.0010973976459354162,-0.0005931525956839323,-0.0020558368414640427
1669700377228045800,5.1320458984375,0.007418410386890173,0.0010223209392279387,0.0016803122125566006
1669700377237975800,5.141975830078125,0.005500219762325287,0.0003910115920007229,-0.0020768498070538044
1669700377247906800,5.15190673828125,0.014899580739438534,-0.000054535456001758575,0.0017599663697183132
1669700377257837000,5.161837158203125,0.029112104326486588,0.0005726283416152,-0.001475039403885603
1669700377267767800,5.171767822265625,0.028560031205415726,0.0027835844084620476,-0.00035624532029032707
1669700377277698000,5.181697998046875,0.04239209368824959,-0.0009525672066956758,0.0014598802663385868
1669700377287628800,5.19162890625,0.05876068025827408,0.0013390828389674425,0.002910770010203123
1669700377297559000,5.20155908203125,0.06349490582942963,-0.006556096486747265,-0.00546257896348834
1669700377307489800,5.21148974609375,0.061150796711444855,0.003705329494550824,0.000645914115011692
1669700377317420000,5.221419921875,0.034408774226903915,0.0040224166586995125,0.0021557947620749474
1669700377327350800,5.231350830078125,0.03827035799622536,-0.002725500613451004,-0.0011057783849537373
1669700377337282000,5.241281982421875,0.02700860984623432,-0.0009765357244759798,-0.001030175480991602
1669700377347211800,5.251211669921875,0.0337275005877018,0.0030046238098293543,0.0012359083630144596
1669700377357143000,5.26114306640625,0.022021029144525528,0.00457467045634985,0.00266610411927104
1669700377367073000,5.271072998046875,0.02076321840286255,-0.005150661338120699,-0.0005549890920519829
1669700377377004000,5.281004150390625,0.03903347998857498,-0.004355244804173708,-0.00044059334322810173
1669700377386934000,5.29093408203125,0.049585189670324326,-0.005247670225799084,-0.006477979477494955
1669700377396864800,5.30086474609375,0.06297489255666733,-0.0028707990422844887,-0.0026993355713784695
1669700377406795000,5.310794921875,0.09380098432302475,-0.007902842015028,-0.0012865285389125347
1669700377416725800,5.320725830078125,0.11108831316232681,0.0034961472265422344,0.0010870215483009815
1669700377426656000,5.330656005859375,0.14990176260471344,-0.010467872023582458,-0.00926042441278696
1669700377436586800,5.340586669921875,0.18498194217681885,0.00012081512250006199,0.001735694706439972
1669700377446517000,5.35051708984375,0.22094526886940002,0.009206455200910568,0.0012262314558029175
1669700377456447700,5.36044775390625,0.2438380867242813,-0.007561127655208111,-0.003275749273598194
1669700377466378000,5.3703779296875,0.25444677472114563,-0.000010799849405884743,0.0027816109359264374
1669700377476309000,5.38030908203125,0.2832513451576233,0.010935615748167038,0.0005815848708152771
1669700377486239000,5.390239013671875,0.30158719420433044,-0.005843896418809891,-0.0034206132404506207
1669700377496170000,5.400169921875,0.3143720328807831,0.001204509986564517,-0.0044809007085859776
1669700377506100000,5.410099853515625,0.3083721995353699,0.0026700471062213182,0.0011397004127502441
1669700377516031000,5.420031005859375,0.30682218074798584,-0.036624714732170105,-0.021831311285495758
1669700377525961000,5.4299609375,0.30810341238975525,0.007859133183956146,0.009914633817970753
1669700377535892000,5.43989208984375,0.288595050573349,-0.01791374944150448,-0.010689418762922287
1669700377545822000,5.449822021484375,0.2604827284812927,0.0024000443518161774,-0.000022127293050289154
1669700377555753000,5.4597529296875,0.194716215133667,-0.0019503836520016193,-0.003074297681450844
1669700377565684000,5.46968408203125,0.16547417640686035,0.012907392345368862,0.008617246523499489
1669700377575614000,5.479614013671875,0.15511545538902283,-0.00581416767090559,-0.004607599228620529
1669700377585545000,5.489544921875,0.1900276243686676,-0.004069264512509108,-0.0023846589028835297
1669700377595475000,5.499474853515625,0.23649170994758606,0.0056564174592494965,0.00002556992694735527
1669700377605406000,5.509406005859375,0.2893299162387848,-0.006872157566249371,-0.0019190702587366104
1669700377615336000,5.5193359375,0.31765440106391907,0.0012287304271012545,-0.004555265884846449
1669700377625267000,5.529266845703125,0.31817930936813354,0.006780622527003288,-0.001110733486711979
1669700377635197000,5.539197021484375,0.29389244318008423,0.002101896097883582,0.004495951812714338
1669700377645128000,5.5491279296875,0.25114017724990845,-0.008148876950144768,-0.010719220153987408
1669700377655058000,5.559057861328125,0.20244860649108887,-0.001039652619510889,-0.006091246381402016
1669700377664989000,5.568989013671875,0.1575527787208557,-0.013910177163779736,-0.014764096587896347
1669700377674919000,5.5789189453125,0.12025206536054611,-0.01478312537074089,-0.0047777313739061356
1669700377684850000,5.588849853515625,0.056048307567834854,0.009080661460757256,-0.011562134139239788
1669700377694780000,5.59877978515625,0.029002539813518524,-0.002608688548207283,-0.00507390359416604
1669700377704711000,5.6087109375,0.013826781883835793,0.004902224522083998,-0.0009936746209859848
1669700377714641000,5.618640869140625,0.003952936269342899,0.025528742000460625,0.0143814068287611
1669700377724572000,5.628572021484375,0.03383653238415718,0.013274741359055042,0.01155073381960392
1669700377734502000,5.638501953125,0.0679273009300232,0.003824498737230897,0.009962210431694984
1669700377744433000,5.648432861328125,0.1090739369392395,-0.011408782564103603,-0.007809862494468689
1669700377754363100,5.658363037109375,0.14737509191036224,0.015726657584309578,0.014675246551632881
1669700377764294000,5.6682939453125,0.17357605695724487,0.017476089298725128,0.007428253535181284
1669700377774224100,5.67822412109375,0.17756885290145874,0.02218448743224144,0.012164566665887833
1669700377784155400,5.6881552734375,0.1677905172109604,-0.0007818154990673065,0.006268593017011881
1669700377794086100,5.698086181640625,0.15542882680892944,0.011725705116987228,0.0060452064499258995
1669700377804016400,5.708016357421875,0.11202596127986908,0.0020214125979691744,-0.0006486489437520504
1669700377813947400,5.717947509765625,0.06066734716296196,-0.028324369341135025,-0.015794869512319565
1669700377823877400,5.72787744140625,0.05361742898821831,0.004404283128678799,0.0016187401488423347
1669700377833808400,5.737808349609375,0.022302836179733276,-0.018467390909790993,-0.003259836696088314
1669700377843738400,5.74773828125,0.01206484716385603,-0.013284878805279732,-0.011477285996079445
1669700377853669400,5.75766943359375,0.02520129643380642,-0.006638752296566963,0.000299687497317791
1669700377863599400,5.767599365234375,0.06661824882030487,-0.008326398208737373,-0.004049254581332207
1669700377873530400,5.7775302734375,0.09454017132520676,0.025680193677544594,0.01372780092060566
1669700377883460400,5.78746044921875,0.09710106253623962,0.0012116010766476393,-0.0032083066180348396
1669700377893391400,5.797391357421875,0.07153555005788803,-0.010465570725500584,-0.007905654609203339
1669700377903321300,5.8073212890625,0.032639287412166595,0.004235077649354935,0.003995480015873909
1669700377913252400,5.81725244140625,-0.005254325456917286,0.003467775648459792,0.0012762835249304771
1669700377923182300,5.827182373046875,-0.047516029328107834,-0.01816960982978344,-0.007693774998188019
1669700377933113300,5.83711328125,-0.07323947548866272,0.007470020093023777,0.005667678080499172
1669700377943043300,5.847043212890625,-0.07721264660358429,0.013934577815234661,0.005197097547352314
1669700377952974300,5.856974365234375,-0.0699877068400383,0.0005600522272288799,0.0020783604122698307
1669700377962904300,5.866904296875,-0.06408773362636566,0.009486434981226921,0.008184721693396568
1669700377972835300,5.87683544921875,-0.0699693039059639,0.005577757954597473,-0.0017554168589413166
1669700377982766300,5.886766357421875,-0.05817629024386406,-0.003957956563681364,-0.001668331678956747
1669700377992696300,5.8966962890625,-0.03599576652050018,-0.0017127995379269123,0.00018488848581910133
1669700378002627300,5.90662744140625,-0.027820393443107605,0.003534160554409027,0.002844853326678276
1669700378012557300,5.916557373046875,-0.018282607197761536,-0.0019717449322342873,0.000270194374024868
1669700378022488300,5.92648828125,0.0009613942820578814,0.003692532191053033,0.003888630773872137
1669700378032418300,5.936418212890625,0.010771355591714382,-0.013600785285234451,-0.00886463187634945
1669700378042349300,5.946349365234375,0.022722290828824043,0.0040258788503706455,0.00006255041807889938
1669700378052279300,5.956279296875,0.030211444944143295,-0.0027897688560187817,-0.003495500423014164
1669700378062210300,5.966210205078125,-0.0055606672540307045,-0.001832895097322762,0.00016741128638386726
1669700378072140300,5.976140380859375,0.007742413319647312,-0.010970916599035263,-0.004460446536540985
1669700378082071300,5.9860712890625,0.02016339637339115,0.026741040870547295,0.013775816187262535
1669700378092001500,5.99600146484375,0.03890078514814377,0.011559510603547096,0.008530786260962486
1669700378101932300,6.005932373046875,0.05575087293982506,0.00011564069427549839,-0.0001607052981853485
1669700378111862500,6.015862548828125,0.07345322519540787,-0.0030848542228341103,-0.002084622625261545
1669700378121793300,6.025793212890625,0.06291589140892029,0.002414839807897806,0.000731936190277338
1669700378131723500,6.0357236328125,0.05143369361758232,-0.0005645581986755133,-0.001385122537612915
1669700378141654300,6.045654296875,0.009817274287343025,-0.0027736504562199116,-0.00013689883053302765
1669700378151584500,6.05558447265625,-0.012299245223402977,-0.005273330956697464,-0.001514094416052103
1669700378161515300,6.065515380859375,-0.0007187558803707361,-0.0004809729289263487,-0.0008248682133853436
1669700378171446300,6.0754462890625,-0.00009578303433954716,-0.007098316214978695,-0.0016135121695697308
1669700378181376300,6.085376220703125,0.00022273091599345207,-0.012627038173377514,-0.0072713978588581085
1669700378191307300,6.095307373046875,-0.0003839842975139618,-0.004066444002091885,-0.0027385568246245384
1669700378201237500,6.105237548828125,0.00139367557130754,0.0051456959918141365,0.0002798698842525482
1669700378211168300,6.115168212890625,0.0005026543512940407,-0.013082658872008324,-0.009393029846251011
1669700378221098500,6.125098388671875,0.0007290230132639408,-0.021935805678367615,-0.015308709815144539
1669700378231029200,6.135029296875,-0.0031067337840795517,-0.03320544958114624,-0.023088961839675903
1669700378240959500,6.14495947265625,-0.023745698854327202,-0.01852504163980484,-0.010767580941319466
1669700378250890200,6.15489013671875,-0.007097421679645777,0.013826856389641762,0.006678171921521425
1669700378260820500,6.164820556640625,0.0004981798119843006,-0.016053546220064163,-0.00967230461537838
1669700378270751200,6.174751220703125,-0.00028849230147898197,0.009672634303569794,0.006053504068404436
1669700378280681500,6.184681396484375,-0.0010733259841799736,-0.0023131882771849632,-0.0009554033167660236
1669700378290612200,6.1946123046875,0.0006080905441194773,0.005944515578448772,0.002539954148232937
1669700378300542500,6.20454248046875,-0.0013235004153102636,0.0037777672987431288,0.002436090260744095
1669700378310473500,6.214473388671875,-0.0045316824689507484,0.002287736162543297,0.0006338120438158512
1669700378320403500,6.224403564453125,-0.0023902347311377525,0.002038997132331133,0.00012621330097317696
1669700378330334500,6.23433447265625,-0.003431548597291112,0.0025036162696778774,0.0015488602221012115
1669700378340264400,6.244264404296875,0.00037650554440915585,0.0009246277622878551,0.0006841318681836128
1669700378350195500,6.254195556640625,-0.0001706897746771574,0.0020954785868525505,0.0006633857265114784
1669700378360126200,6.264126220703125,-0.0020745834335684776,-0.0020009956788271666,0.0003464692272245884
1669700378370056400,6.274056396484375,0.00034564826637506485,0.003278004704043269,0.0017054812051355839
1669700378379987200,6.2839873046875,-0.00034064846113324165,-0.0002317754551768303,0.0025891182012856007
1669700378389917400,6.29391748046875,0.002004840411245823,0.0007303974125534296,0.001771965529769659
1669700378399848200,6.30384814453125,-0.00011130748316645622,-0.0023548747412860394,-0.0015266253612935543
1669700378409778400,6.3137783203125,-0.0009813685901463032,-0.0001622387208044529,0.0012690676376223564
1669700378419709200,6.323709228515625,0.0014157426776364446,-0.00034360005520284176,0.001957494765520096
1669700378429639400,6.333639404296875,-0.0012943616602569818,0.0023925621062517166,-0.00031455326825380325
1669700378439570400,6.3435703125,0.001244695857167244,-0.0006993678398430347,0.0006652232259511948
1669700378449500400,6.35350048828125,0.0004916321486234665,0.003560538636520505,-0.0005364622920751572
1669700378459431400,6.363431396484375,0.00035527837462723255,0.0017703620251268148,0.0018888781778514385
1669700378469361400,6.373361328125,-0.002491725143045187,0.0007161574903875589,0.00240550609305501
1669700378479292400,6.38329248046875,-0.00012923520989716053,0.001549727050587535,0.0014323866926133633
1669700378489222400,6.393222412109375,-0.0010412835981696844,-0.001195866847410798,0.0025514732114970684
1669700378499153400,6.4031533203125,0.0002876340877264738,0.002305923728272319,-0.0016504623927175999
1669700378509083400,6.41308349609375,-0.0013728090561926365,-0.0009934797417372465,-0.0022524367086589336
1669700378519014400,6.423014404296875,0.0016453516436740756,0.0005048147868365049,-0.000539757777005434
1669700378528944000,6.432944091796875,-0.0019318638369441032,-0.0012023577000945807,0.0016877944581210613
1669700378538875400,6.44287548828125,0.0006087918300181627,0.0014181926380842924,0.00010454561561346054
1669700378548805000,6.45280517578125,-0.0018606409430503845,-0.0006959764286875725,0.000652853399515152
1669700378558736400,6.462736328125,-0.0018057799898087978,0.00009524868801236153,0.0017809681594371796
1669700378568667400,6.47266748046875,-0.001143433153629303,0.0017465113196521997,-0.0015370501205325127
1669700378578597400,6.482597412109375,0.00045046862214803696,-0.00019812886603176594,0.001765536144375801
1669700378588528400,6.4925283203125,0.0006071352399885654,0.0011648451909422874,-0.0006604981608688831
1669700378598458400,6.502458251953125,-0.0019926426466554403,0.0011432734318077564,0.0009603016078472137
1669700378608389400,6.512389404296875,0.0010567549616098404,0.001211098162457347,-0.0007828045636415482
1669700378618319400,6.5223193359375,0.0010471674613654613,-0.0005284787621349096,0.0004923166707158089
1669700378628250400,6.53225048828125,0.0016207087319344282,-0.0014395052567124367,-0.0026976587250828743
1669700378638180400,6.542180419921875,0.0008830130100250244,0.0023656191769987345,0.0035762167535722256
1669700378648111400,6.552111328125,0.0011189947836101055,0.0008524563163518906,-0.001658117864280939
1669700378658041300,6.562041259765625,-0.00010818988084793091,-0.0005361160729080439,-0.0016605150885879993
1669700378667972400,6.571972412109375,0.0020841960795223713,-0.001677044783718884,-0.0005296315066516399
1669700378677902300,6.58190234375,-0.0029968488961458206,-0.0009175112936645746,-0.0010614651255309582
1669700378687833300,6.591833251953125,-0.0020075752399861813,0.001118405256420374,0.001959504559636116
1669700378697763300,6.601763427734375,0.0011818264611065388,0.0012046918272972107,-0.0008149761706590652
1669700378707694300,6.6116943359375,0.0003631769213825464,0.000681058969348669,0.0012685083784162998
1669700378717624300,6.621624267578125,-0.00025014905259013176,0.0020504561252892017,0.0025359061546623707
1669700378727555300,6.631555419921875,-0.00040140398778021336,-0.001368886441923678,0.002212786115705967
1669700378737485300,6.6414853515625,-0.002285856520757079,0.03296937793493271,0.02429305762052536
1669700378747416300,6.651416259765625,0.0010551633313298225,0.054092369973659515,0.03266952186822891
1669700378757347300,6.661347412109375,-0.0006894734688103199,0.014285033568739891,0.009386836551129818
1669700378767277300,6.67127734375,0.0004318205174058676,-0.0013336464762687683,-0.004558233544230461
1669700378777208600,6.68120849609375,-0.000322120264172554,0.0024083610624074936,-0.001441536471247673
1669700378787138600,6.691138671875,0.00010960712097585201,-0.0037757682148367167,-0.0007979171350598335
1669700378797069600,6.701069580078125,-0.00020997226238250732,-0.04125230386853218,-0.021896012127399445
1669700378806999600,6.71099951171875,0.0010484210215508938,-0.06463653594255447,-0.03777244687080383
1669700378816930600,6.7209306640625,-0.0027875963132828474,0.02575221285223961,0.014122708700597286
